face_images_1,face_images_2,pos_1,pos_2,trials_30.thisRepN,trials_30.thisTrialN,trials_30.thisN,trials_30.thisIndex,main_1.thisRepN,main_1.thisTrialN,main_1.thisN,main_1.thisIndex,main_2.thisRepN,main_2.thisTrialN,main_2.thisN,main_2.thisIndex,main_3.thisRepN,main_3.thisTrialN,main_3.thisN,main_3.thisIndex,main_4.thisRepN,main_4.thisTrialN,main_4.thisN,main_4.thisIndex,thisRow.t,notes,Instruction.started,text_Welcome.started,key_space.started,Instruction.stopped,key_space.keys,key_space.rt,key_space.duration,gap.started,text_gap.started,gap.stopped,plus.started,plus__.started,plus.stopped,trial_30.started,image_1.started,image_2.started,trial_resp.started,image_1.stopped,image_2.stopped,trial_30.stopped,trial_resp.keys,trial_resp.rt,trial_resp.duration,Instruction_1.started,text_instruct.started,space_resp.started,Instruction_1.stopped,space_resp.keys,space_resp.rt,space_resp.duration,gap_1.started,gap__1.started,gap_1.stopped,plus_1.started,plus__1.started,plus_1.stopped,Block_1.started,image_1_set_1.started,image_2_set_1.started,resp_1.started,image_1_set_1.stopped,image_2_set_1.stopped,Block_1.stopped,resp_1.keys,resp_1.rt,resp_1.duration,Instuct_2.started,text_block2.started,space_resp_2.started,Instuct_2.stopped,space_resp_2.keys,space_resp_2.rt,space_resp_2.duration,gap_2.started,gap__2.started,gap_2.stopped,plus_2.started,plus__2.started,plus_2.stopped,Block_2.started,image_1_set_2.started,image_2_set_2.started,resp_2.started,image_1_set_2.stopped,image_2_set_2.stopped,Block_2.stopped,resp_2.keys,resp_2.rt,resp_2.duration,Instruct_3.started,text_block3.started,space_resp_3.started,Instruct_3.stopped,space_resp_3.keys,space_resp_3.rt,space_resp_3.duration,gap_3.started,gap__3.started,gap_3.stopped,plus_3.started,plus__3.started,plus_3.stopped,Block_3.started,image_1_set_3.started,image_2_set_3.started,resp_3.started,image_1_set_3.stopped,image_2_set_3.stopped,Block_3.stopped,resp_3.keys,resp_3.rt,resp_3.duration,Instruct_4.started,text_block4.started,space_resp_4.started,Instruct_4.stopped,space_resp_4.keys,space_resp_4.rt,space_resp_4.duration,gap_4.started,gap__4.started,gap_4.stopped,plus_4.started,plus___4.started,plus_4.stopped,Block_4.started,image_1_set_4.started,image_2_set_4.started,resp_4.started,image_1_set_4.stopped,image_2_set_4.stopped,Block_4.stopped,resp_4.keys,resp_4.rt,resp_4.duration,end.started,text_3.started,text_3.stopped,end.stopped,participant,session,date,expName,psychopyVersion,frameRate,expStart,
,,,,,,,,,,,,,,,,,,,,,,,,,,0.005094100022688508,0.007086699944920838,0.007086699944920838,28.023537199944258,['space'],[28.008096299949102],[None],,,,,,,,,,,,,,,,,,,,,,,,,,,,,,,,,,,,,,,,,,,,,,,,,,,,,,,,,,,,,,,,,,,,,,,,,,,,,,,,,,,,,,,,,,,,,,,,,,,,,,,,,,,,,,,,,910574,001,2024-07-31_14h39.54.205,final,2024.1.5,None,2024-07-31 14h39.57.809780 +0530,
images/5n.tiff,images/5n.tiff,"(0.3, 0.2)","(-0.3, 0.2)",0,0,0,22,,,,,,,,,,,,,,,,,28.032930699991994,,,,,,,,,28.031337499967776,28.032930699991994,28.52388799993787,28.523929600021802,28.536945599946193,28.723852499970235,28.723861899925396,28.783608199912123,28.783608199912123,28.783608199912123,29.283490899950266,29.283490899950266,67.97914289997425,['z'],[39.1843807999976],[None],,,,,,,,,,,,,,,,,,,,,,,,,,,,,,,,,,,,,,,,,,,,,,,,,,,,,,,,,,,,,,,,,,,,,,,,,,,,,,,,,,,,,,,,,,,,,,,,,910574,001,2024-07-31_14h39.54.205,final,2024.1.5,None,2024-07-31 14h39.57.809780 +0530,
images/4n.tiff,images/4n.tiff,"(0.3, 0.2)","(-0.3, 0.2)",0,1,1,3,,,,,,,,,,,,,,,,,67.99096349999309,,,,,,,,,67.98085870000068,67.99096349999309,68.48436399991624,68.48439739993773,68.49760619993322,68.6843213000102,68.68435019999743,68.70469159993809,68.70469159993809,68.70469159993809,69.20394419995137,69.20394419995137,81.56157999997959,['z'],[12.855024800053798],[None],,,,,,,,,,,,,,,,,,,,,,,,,,,,,,,,,,,,,,,,,,,,,,,,,,,,,,,,,,,,,,,,,,,,,,,,,,,,,,,,,,,,,,,,,,,,,,,,,910574,001,2024-07-31_14h39.54.205,final,2024.1.5,None,2024-07-31 14h39.57.809780 +0530,
images/18n.tiff,images/4n.tiff,"(0.3, 0.2)","(-0.3, 0.2)",0,2,2,12,,,,,,,,,,,,,,,,,81.57309089996852,,,,,,,,,81.56255539995618,81.57309089996852,82.06626789993607,82.066284099943,82.07965500000864,82.26639549992979,82.26642529992387,82.28505099995527,82.28505099995527,82.28505099995527,82.78619609994348,82.78619609994348,83.97375989996362,['m'],[1.6753571999724954],[None],,,,,,,,,,,,,,,,,,,,,,,,,,,,,,,,,,,,,,,,,,,,,,,,,,,,,,,,,,,,,,,,,,,,,,,,,,,,,,,,,,,,,,,,,,,,,,,,,910574,001,2024-07-31_14h39.54.205,final,2024.1.5,None,2024-07-31 14h39.57.809780 +0530,
images/5n.tiff,images/5n.tiff,"(0.3, 0.2)","(-0.3, 0.2)",0,3,3,7,,,,,,,,,,,,,,,,,83.98562839999795,,,,,,,,,83.9747570999898,83.98562839999795,84.47915709996596,84.47918689996004,84.49230429995805,84.67893609998282,84.67896759998985,84.69887339998968,84.69887339998968,84.69887339998968,85.19855490000919,85.19855490000919,88.90545229997952,['m'],[4.196400900022127],[None],,,,,,,,,,,,,,,,,,,,,,,,,,,,,,,,,,,,,,,,,,,,,,,,,,,,,,,,,,,,,,,,,,,,,,,,,,,,,,,,,,,,,,,,,,,,,,,,,910574,001,2024-07-31_14h39.54.205,final,2024.1.5,None,2024-07-31 14h39.57.809780 +0530,
images/4n.tiff,images/18n.tiff,"(0.3, 0.2)","(-0.3, 0.2)",0,4,4,2,,,,,,,,,,,,,,,,,88.91737219993956,,,,,,,,,88.9064192000078,88.91737219993956,89.41076689993497,89.41079959995113,89.42387139995117,89.61065990000498,89.61068990000058,89.62872639996931,89.62872639996931,89.62872639996931,90.13029979995918,90.13029979995918,91.23812799993902,['m'],[1.603002900024876],[None],,,,,,,,,,,,,,,,,,,,,,,,,,,,,,,,,,,,,,,,,,,,,,,,,,,,,,,,,,,,,,,,,,,,,,,,,,,,,,,,,,,,,,,,,,,,,,,,,910574,001,2024-07-31_14h39.54.205,final,2024.1.5,None,2024-07-31 14h39.57.809780 +0530,
images/18n.tiff,images/18n.tiff,"(0.3, 0.2)","(-0.3, 0.2)",0,5,5,25,,,,,,,,,,,,,,,,,91.2500281999819,,,,,,,,,91.23910879995674,91.2500281999819,91.74329989997204,91.74333069997374,91.7565164999105,91.94325519993436,91.94328679994214,91.96332959993742,91.96332959993742,91.96332959993742,92.46299609995913,92.46299609995913,93.73048959998414,['z'],[1.7644336000084877],[None],,,,,,,,,,,,,,,,,,,,,,,,,,,,,,,,,,,,,,,,,,,,,,,,,,,,,,,,,,,,,,,,,,,,,,,,,,,,,,,,,,,,,,,,,,,,,,,,,910574,001,2024-07-31_14h39.54.205,final,2024.1.5,None,2024-07-31 14h39.57.809780 +0530,
images/4n.tiff,images/10n.tiff,"(0.3, 0.2)","(-0.3, 0.2)",0,6,6,1,,,,,,,,,,,,,,,,,93.74236049992032,,,,,,,,,93.73151539999526,93.74236049992032,94.23581689991988,94.23584879992995,94.24897149996832,94.43572029995266,94.43575129995588,94.45373509998899,94.45373509998899,94.45373509998899,94.95550809998531,94.95550809998531,95.95531589991879,['m'],[1.4895771000301465],[None],,,,,,,,,,,,,,,,,,,,,,,,,,,,,,,,,,,,,,,,,,,,,,,,,,,,,,,,,,,,,,,,,,,,,,,,,,,,,,,,,,,,,,,,,,,,,,,,,910574,001,2024-07-31_14h39.54.205,final,2024.1.5,None,2024-07-31 14h39.57.809780 +0530,
images/4n.tiff,images/5n.tiff,"(0.3, 0.2)","(-0.3, 0.2)",0,7,7,0,,,,,,,,,,,,,,,,,95.96819619997405,,,,,,,,,95.95554779993836,95.96819619997405,96.46170200000051,96.46173390001059,96.47488320001867,96.6616649000207,96.6616962000262,96.68029699998442,96.68029699998442,96.68029699998442,97.1812850999413,97.1812850999413,99.08911459997762,['m'],[2.4069063999922946],[None],,,,,,,,,,,,,,,,,,,,,,,,,,,,,,,,,,,,,,,,,,,,,,,,,,,,,,,,,,,,,,,,,,,,,,,,,,,,,,,,,,,,,,,,,,,,,,,,,910574,001,2024-07-31_14h39.54.205,final,2024.1.5,None,2024-07-31 14h39.57.809780 +0530,
images/5n.tiff,images/18n.tiff,"(0.3, 0.2)","(-0.3, 0.2)",0,8,8,21,,,,,,,,,,,,,,,,,99.10054649994709,,,,,,,,,99.09008029999677,99.10054649994709,99.59405349998269,99.5940826999722,99.6071695999708,99.79393679997884,99.79398029996082,99.81245319999289,99.81245319999289,99.81245319999289,100.31362859997898,100.31362859997898,100.9815095999511,['m'],[1.162576499977149],[None],,,,,,,,,,,,,,,,,,,,,,,,,,,,,,,,,,,,,,,,,,,,,,,,,,,,,,,,,,,,,,,,,,,,,,,,,,,,,,,,,,,,,,,,,,,,,,,,,910574,001,2024-07-31_14h39.54.205,final,2024.1.5,None,2024-07-31 14h39.57.809780 +0530,
images/4n.tiff,images/10n.tiff,"(0.3, 0.2)","(-0.3, 0.2)",0,9,9,17,,,,,,,,,,,,,,,,,100.99339880002663,,,,,,,,,100.98252219997812,100.99339880002663,101.48676679993514,101.48683399998117,101.50018249999266,101.68675829994027,101.68678629992064,101.70820170000661,101.70820170000661,101.70820170000661,102.20631049992517,102.20631049992517,102.91409129998647,['m'],[1.2031902000308037],[None],,,,,,,,,,,,,,,,,,,,,,,,,,,,,,,,,,,,,,,,,,,,,,,,,,,,,,,,,,,,,,,,,,,,,,,,,,,,,,,,,,,,,,,,,,,,,,,,,910574,001,2024-07-31_14h39.54.205,final,2024.1.5,None,2024-07-31 14h39.57.809780 +0530,
images/10n.tiff,images/10n.tiff,"(0.3, 0.2)","(-0.3, 0.2)",0,10,10,24,,,,,,,,,,,,,,,,,102.92602819995955,,,,,,,,,102.915120700025,102.92602819995955,103.41940789995715,103.41943919996265,103.43256859993562,103.61937859992031,103.61941039992962,103.64092649996746,103.64092649996746,103.64092649996746,104.1390231999103,104.1390231999103,105.0466749999905,['z'],[1.3985585999907926],[None],,,,,,,,,,,,,,,,,,,,,,,,,,,,,,,,,,,,,,,,,,,,,,,,,,,,,,,,,,,,,,,,,,,,,,,,,,,,,,,,,,,,,,,,,,,,,,,,,910574,001,2024-07-31_14h39.54.205,final,2024.1.5,None,2024-07-31 14h39.57.809780 +0530,
images/5n.tiff,images/18n.tiff,"(0.3, 0.2)","(-0.3, 0.2)",0,11,11,6,,,,,,,,,,,,,,,,,105.0586873999564,,,,,,,,,105.04765009996481,105.0586873999564,105.55204919993412,105.55207959993277,105.56528009998146,105.75202329992317,105.75208559993189,105.7711197999306,105.7711197999306,105.7711197999306,106.27171399991494,106.27171399991494,107.01948769995943,['m'],[1.2364015000639483],[None],,,,,,,,,,,,,,,,,,,,,,,,,,,,,,,,,,,,,,,,,,,,,,,,,,,,,,,,,,,,,,,,,,,,,,,,,,,,,,,,,,,,,,,,,,,,,,,,,910574,001,2024-07-31_14h39.54.205,final,2024.1.5,None,2024-07-31 14h39.57.809780 +0530,
images/10n.tiff,images/18n.tiff,"(0.3, 0.2)","(-0.3, 0.2)",0,12,12,23,,,,,,,,,,,,,,,,,107.03146470000502,,,,,,,,,107.02043919998687,107.03146470000502,107.5247274999274,107.524753900012,107.53796539991163,107.72467109991703,107.72470010002144,107.74415699997917,107.74415699997917,107.74415699997917,108.24429419997614,108.24429419997614,109.01889049995225,['z'],[1.2709451999980956],[None],,,,,,,,,,,,,,,,,,,,,,,,,,,,,,,,,,,,,,,,,,,,,,,,,,,,,,,,,,,,,,,,,,,,,,,,,,,,,,,,,,,,,,,,,,,,,,,,,910574,001,2024-07-31_14h39.54.205,final,2024.1.5,None,2024-07-31 14h39.57.809780 +0530,
images/5n.tiff,images/10n.tiff,"(0.3, 0.2)","(-0.3, 0.2)",0,13,13,5,,,,,,,,,,,,,,,,,109.03075719997287,,,,,,,,,109.01987079996616,109.03075719997287,109.52416729996912,109.5241952999495,109.53731229994446,109.7239596999716,109.72398829995655,109.74250839999877,109.74250839999877,109.74250839999877,110.24363509996329,110.24363509996329,113.28399079991505,['z'],[3.528609599918127],[None],,,,,,,,,,,,,,,,,,,,,,,,,,,,,,,,,,,,,,,,,,,,,,,,,,,,,,,,,,,,,,,,,,,,,,,,,,,,,,,,,,,,,,,,,,,,,,,,,910574,001,2024-07-31_14h39.54.205,final,2024.1.5,None,2024-07-31 14h39.57.809780 +0530,
images/10n.tiff,images/5n.tiff,"(0.3, 0.2)","(-0.3, 0.2)",0,14,14,27,,,,,,,,,,,,,,,,,113.29609840002377,,,,,,,,,113.2849811000051,113.29609840002377,113.78931099991314,113.78934399993159,113.8024701999966,113.98939230001997,113.98942360002548,114.01200579991564,114.01200579991564,114.01200579991564,114.50909619999584,114.50909619999584,115.39008559996728,['m'],[1.3715459000086412],[None],,,,,,,,,,,,,,,,,,,,,,,,,,,,,,,,,,,,,,,,,,,,,,,,,,,,,,,,,,,,,,,,,,,,,,,,,,,,,,,,,,,,,,,,,,,,,,,,,910574,001,2024-07-31_14h39.54.205,final,2024.1.5,None,2024-07-31 14h39.57.809780 +0530,
images/10n.tiff,images/5n.tiff,"(0.3, 0.2)","(-0.3, 0.2)",0,15,15,9,,,,,,,,,,,,,,,,,115.40184329997282,,,,,,,,,115.39110070001334,115.40184329997282,115.89530680002645,115.89533389999997,115.90850439993665,116.09527689998504,116.09530479996465,116.11575549992267,116.11575549992267,116.11575549992267,116.61500609992072,116.61500609992072,118.36244719999377,['m'],[2.2360988999716938],[None],,,,,,,,,,,,,,,,,,,,,,,,,,,,,,,,,,,,,,,,,,,,,,,,,,,,,,,,,,,,,,,,,,,,,,,,,,,,,,,,,,,,,,,,,,,,,,,,,910574,001,2024-07-31_14h39.54.205,final,2024.1.5,None,2024-07-31 14h39.57.809780 +0530,
images/4n.tiff,images/5n.tiff,"(0.3, 0.2)","(-0.3, 0.2)",0,16,16,16,,,,,,,,,,,,,,,,,118.37430209992453,,,,,,,,,118.36345039994922,118.37430209992453,118.86773559998255,118.86778610001784,118.88092509994749,119.06765310000628,119.06767779996153,119.08574949996546,119.08574949996546,119.08574949996546,119.58718749997206,119.58718749997206,121.77454969997052,['m'],[2.681985600036569],[None],,,,,,,,,,,,,,,,,,,,,,,,,,,,,,,,,,,,,,,,,,,,,,,,,,,,,,,,,,,,,,,,,,,,,,,,,,,,,,,,,,,,,,,,,,,,,,,,,910574,001,2024-07-31_14h39.54.205,final,2024.1.5,None,2024-07-31 14h39.57.809780 +0530,
images/5n.tiff,images/10n.tiff,"(0.3, 0.2)","(-0.3, 0.2)",0,17,17,20,,,,,,,,,,,,,,,,,121.78650970000308,,,,,,,,,121.77558529993985,121.78650970000308,122.28002720000222,122.28005719999783,122.29323429998476,122.4799817999592,122.48001119995024,122.49821899994276,122.49821899994276,122.49821899994276,122.9994889999507,122.9994889999507,124.62691089999862,['m'],[2.116894799983129],[None],,,,,,,,,,,,,,,,,,,,,,,,,,,,,,,,,,,,,,,,,,,,,,,,,,,,,,,,,,,,,,,,,,,,,,,,,,,,,,,,,,,,,,,,,,,,,,,,,910574,001,2024-07-31_14h39.54.205,final,2024.1.5,None,2024-07-31 14h39.57.809780 +0530,
images/10n.tiff,images/10n.tiff,"(0.3, 0.2)","(-0.3, 0.2)",0,18,18,11,,,,,,,,,,,,,,,,,124.6388535000151,,,,,,,,,124.62790939991828,124.6388535000151,125.13256719999481,125.13259920000564,125.1455483000027,125.33235759998206,125.33238639996853,125.35049260000233,125.35049260000233,125.35049260000233,125.85209379997104,125.85209379997104,127.01303159992676,['z'],[1.657524999929592],[None],,,,,,,,,,,,,,,,,,,,,,,,,,,,,,,,,,,,,,,,,,,,,,,,,,,,,,,,,,,,,,,,,,,,,,,,,,,,,,,,,,,,,,,,,,,,,,,,,910574,001,2024-07-31_14h39.54.205,final,2024.1.5,None,2024-07-31 14h39.57.809780 +0530,
images/18n.tiff,images/10n.tiff,"(0.3, 0.2)","(-0.3, 0.2)",0,19,19,14,,,,,,,,,,,,,,,,,127.024716099957,,,,,,,,,127.01401099993382,127.024716099957,127.51818699995056,127.51825169997755,127.53131440002471,127.71820889995433,127.71823789994232,127.73838110000361,127.73838110000361,127.73838110000361,128.2377558000153,128.2377558000153,129.10564069997054,['m'],[1.357560700038448],[None],,,,,,,,,,,,,,,,,,,,,,,,,,,,,,,,,,,,,,,,,,,,,,,,,,,,,,,,,,,,,,,,,,,,,,,,,,,,,,,,,,,,,,,,,,,,,,,,,910574,001,2024-07-31_14h39.54.205,final,2024.1.5,None,2024-07-31 14h39.57.809780 +0530,
images/18n.tiff,images/4n.tiff,"(0.3, 0.2)","(-0.3, 0.2)",0,20,20,29,,,,,,,,,,,,,,,,,129.11748379992787,,,,,,,,,129.10663289995864,129.11748379992787,129.6108654999407,129.61088759999257,129.62396090000402,129.8107095999876,129.81073939998168,129.82831090001855,129.82831090001855,129.82831090001855,130.33039100002497,130.33039100002497,132.89171439991333,['m'],[3.0596318999305367],[None],,,,,,,,,,,,,,,,,,,,,,,,,,,,,,,,,,,,,,,,,,,,,,,,,,,,,,,,,,,,,,,,,,,,,,,,,,,,,,,,,,,,,,,,,,,,,,,,,910574,001,2024-07-31_14h39.54.205,final,2024.1.5,None,2024-07-31 14h39.57.809780 +0530,
images/18n.tiff,images/18n.tiff,"(0.3, 0.2)","(-0.3, 0.2)",0,21,21,15,,,,,,,,,,,,,,,,,132.90291930001695,,,,,,,,,132.8927022999851,132.90291930001695,133.3962594999466,133.39629129995592,133.40942619997077,133.59624969994184,133.5962800999405,133.61588830000255,133.61588830000255,133.61588830000255,134.11583789996803,134.11583789996803,135.53012100001797,['z'],[1.9112292000791058],[None],,,,,,,,,,,,,,,,,,,,,,,,,,,,,,,,,,,,,,,,,,,,,,,,,,,,,,,,,,,,,,,,,,,,,,,,,,,,,,,,,,,,,,,,,,,,,,,,,910574,001,2024-07-31_14h39.54.205,final,2024.1.5,None,2024-07-31 14h39.57.809780 +0530,
images/10n.tiff,images/4n.tiff,"(0.3, 0.2)","(-0.3, 0.2)",0,22,22,8,,,,,,,,,,,,,,,,,135.54203649994452,,,,,,,,,135.53100590000395,135.54203649994452,136.0353898999747,136.0354190999642,136.04854949994478,136.2352932000067,136.2353235000046,136.25351619999856,136.25351619999856,136.25351619999856,136.75496399996337,136.75496399996337,137.84945460001472,['m'],[1.5935768999624997],[None],,,,,,,,,,,,,,,,,,,,,,,,,,,,,,,,,,,,,,,,,,,,,,,,,,,,,,,,,,,,,,,,,,,,,,,,,,,,,,,,,,,,,,,,,,,,,,,,,910574,001,2024-07-31_14h39.54.205,final,2024.1.5,None,2024-07-31 14h39.57.809780 +0530,
images/18n.tiff,images/5n.tiff,"(0.3, 0.2)","(-0.3, 0.2)",0,23,23,13,,,,,,,,,,,,,,,,,137.86126619996503,,,,,,,,,137.850479500019,137.86126619996503,138.35465569992084,138.35468639992177,138.36790620000102,138.5546483999351,138.554676599917,138.5735291999299,138.5735291999299,138.5735291999299,139.07423249993008,139.07423249993008,142.8878265999956,['m'],[4.306222300045192],[None],,,,,,,,,,,,,,,,,,,,,,,,,,,,,,,,,,,,,,,,,,,,,,,,,,,,,,,,,,,,,,,,,,,,,,,,,,,,,,,,,,,,,,,,,,,,,,,,,910574,001,2024-07-31_14h39.54.205,final,2024.1.5,None,2024-07-31 14h39.57.809780 +0530,
images/5n.tiff,images/4n.tiff,"(0.3, 0.2)","(-0.3, 0.2)",0,24,24,4,,,,,,,,,,,,,,,,,142.8996299999999,,,,,,,,,142.88883650000207,142.8996299999999,143.39301679993514,143.3930471999338,143.40618910000194,143.59307830000762,143.59312640002463,143.6126955000218,143.6126955000218,143.6126955000218,144.1126566999592,144.1126566999592,146.23292099998798,['m'],[2.610705200000666],[None],,,,,,,,,,,,,,,,,,,,,,,,,,,,,,,,,,,,,,,,,,,,,,,,,,,,,,,,,,,,,,,,,,,,,,,,,,,,,,,,,,,,,,,,,,,,,,,,,910574,001,2024-07-31_14h39.54.205,final,2024.1.5,None,2024-07-31 14h39.57.809780 +0530,
images/10n.tiff,images/18n.tiff,"(0.3, 0.2)","(-0.3, 0.2)",0,25,25,10,,,,,,,,,,,,,,,,,146.245196999982,,,,,,,,,146.23361959995236,146.245196999982,146.73852899996564,146.73855929996353,146.75169609999284,146.93846570001915,146.93849500000942,146.95758449996356,146.95758449996356,146.95758449996356,147.45810619997792,147.45810619997792,148.85908299998846,['m'],[1.897600100026466],[None],,,,,,,,,,,,,,,,,,,,,,,,,,,,,,,,,,,,,,,,,,,,,,,,,,,,,,,,,,,,,,,,,,,,,,,,,,,,,,,,,,,,,,,,,,,,,,,,,910574,001,2024-07-31_14h39.54.205,final,2024.1.5,None,2024-07-31 14h39.57.809780 +0530,
images/4n.tiff,images/18n.tiff,"(0.3, 0.2)","(-0.3, 0.2)",0,26,26,18,,,,,,,,,,,,,,,,,148.8709855999332,,,,,,,,,148.86003290000372,148.8709855999332,149.36415629996918,149.36416639992967,149.37744429998565,149.56398779992014,149.56399719999172,149.57877589995041,149.57877589995041,149.57877589995041,150.08374029991683,150.08374029991683,151.64522679999936,['m'],[2.0529518999392167],[None],,,,,,,,,,,,,,,,,,,,,,,,,,,,,,,,,,,,,,,,,,,,,,,,,,,,,,,,,,,,,,,,,,,,,,,,,,,,,,,,,,,,,,,,,,,,,,,,,910574,001,2024-07-31_14h39.54.205,final,2024.1.5,None,2024-07-31 14h39.57.809780 +0530,
images/4n.tiff,images/4n.tiff,"(0.3, 0.2)","(-0.3, 0.2)",0,27,27,19,,,,,,,,,,,,,,,,,151.65661930001806,,,,,,,,,151.64597379998304,151.65661930001806,152.15005820000079,152.15008569997735,152.16328069998417,152.3497653999366,152.34977729991078,152.3640757999383,152.3640757999383,152.3640757999383,152.8696811000118,152.8696811000118,153.77790290000848,['z'],[1.411700800061226],[None],,,,,,,,,,,,,,,,,,,,,,,,,,,,,,,,,,,,,,,,,,,,,,,,,,,,,,,,,,,,,,,,,,,,,,,,,,,,,,,,,,,,,,,,,,,,,,,,,910574,001,2024-07-31_14h39.54.205,final,2024.1.5,None,2024-07-31 14h39.57.809780 +0530,
images/5n.tiff,images/4n.tiff,"(0.3, 0.2)","(-0.3, 0.2)",0,28,28,26,,,,,,,,,,,,,,,,,153.78938169998582,,,,,,,,,153.7789009999251,153.78938169998582,154.2826496999478,154.2826775999274,154.29590609995648,154.48267249995843,154.4827030999586,154.50303099991288,154.50303099991288,154.50303099991288,155.00230649998412,155.00230649998412,155.99013069993816,['m'],[1.4804133001016453],[None],,,,,,,,,,,,,,,,,,,,,,,,,,,,,,,,,,,,,,,,,,,,,,,,,,,,,,,,,,,,,,,,,,,,,,,,,,,,,,,,,,,,,,,,,,,,,,,,,910574,001,2024-07-31_14h39.54.205,final,2024.1.5,None,2024-07-31 14h39.57.809780 +0530,
images/18n.tiff,images/10n.tiff,"(0.3, 0.2)","(-0.3, 0.2)",0,29,29,28,,,,,,,,,,,,,,,,,156.00189469999168,,,,,,,,,155.99110260000452,156.00189469999168,156.49512079998385,156.49513249995653,156.50831099995412,156.69536489993334,156.69539669994265,156.715969700017,156.715969700017,156.715969700017,157.21492399997078,157.21492399997078,158.02919419994578,['m'],[1.2993192999856547],[None],,,,,,,,,,,,,,,,,,,,,,,,,,,,,,,,,,,,,,,,,,,,,,,,,,,,,,,,,,,,,,,,,,,,,,,,,,,,,,,,,,,,,,,,,,,,,,,,,910574,001,2024-07-31_14h39.54.205,final,2024.1.5,None,2024-07-31 14h39.57.809780 +0530,
,,,,,,,,,,,,,,,,,,,,,,,,,,,,,,,,,,,,,,,,,,,,,,,,,158.02990829991177,158.04147880000528,158.04147880000528,167.53319390001707,space,9.486154700047337,None,,,,,,,,,,,,,,,,,,,,,,,,,,,,,,,,,,,,,,,,,,,,,,,,,,,,,,,,,,,,,,,,,,,,,,,,,,,,,,,,,,,,,,,,,,910574,001,2024-07-31_14h39.54.205,final,2024.1.5,None,2024-07-31 14h39.57.809780 +0530,
images/10n.tiff,images/10n.tiff,,,,,,,0,0,0,2,,,,,,,,,,,,,167.5448612999171,,,,,,,,,,,,,,,,,,,,,,,,,,,,,,,,167.5388003999833,167.5448612999171,168.03826439997647,168.03830609994475,168.05156109994277,168.2382480999222,168.23828159994446,168.26092849997804,168.26092849997804,168.26092849997804,168.75790219998453,168.75790219998453,170.45196109998506,['z'],[2.178979599964805],[None],,,,,,,,,,,,,,,,,,,,,,,,,,,,,,,,,,,,,,,,,,,,,,,,,,,,,,,,,,,,,,,,,,,,,,,,,,910574,001,2024-07-31_14h39.54.205,final,2024.1.5,None,2024-07-31 14h39.57.809780 +0530,
images/10n.tiff,images/10n.tiff,,,,,,,0,1,1,5,,,,,,,,,,,,,170.4640290000243,,,,,,,,,,,,,,,,,,,,,,,,,,,,,,,,170.45359179994557,170.4640290000243,170.95717099995818,170.95720259996597,170.97040469991043,171.15747209999245,171.15750339999795,171.17711099993903,171.17711099993903,171.17711099993903,171.67702319996897,171.67702319996897,173.34505250002258,['z'],[2.166398199973628],[None],,,,,,,,,,,,,,,,,,,,,,,,,,,,,,,,,,,,,,,,,,,,,,,,,,,,,,,,,,,,,,,,,,,,,,,,,,910574,001,2024-07-31_14h39.54.205,final,2024.1.5,None,2024-07-31 14h39.57.809780 +0530,
images/5n.tiff,images/10n.tiff,,,,,,,0,2,2,1,,,,,,,,,,,,,173.35642879991792,,,,,,,,,,,,,,,,,,,,,,,,,,,,,,,,173.34617439995054,173.35642879991792,173.84974500001408,173.8497800999321,173.8629761999473,174.0497742999578,174.04980549996253,174.07042769994587,174.07042769994587,174.07042769994587,174.5693318999838,174.5693318999838,175.79700080002658,['m'],[1.7133380000013858],[None],,,,,,,,,,,,,,,,,,,,,,,,,,,,,,,,,,,,,,,,,,,,,,,,,,,,,,,,,,,,,,,,,,,,,,,,,,910574,001,2024-07-31_14h39.54.205,final,2024.1.5,None,2024-07-31 14h39.57.809780 +0530,
images/10n.tiff,images/5n.tiff,,,,,,,0,3,3,3,,,,,,,,,,,,,175.80887089995667,,,,,,,,,,,,,,,,,,,,,,,,,,,,,,,,175.79818019992672,175.80887089995667,176.30228639999405,176.3023189000087,176.31542389991228,176.50231339992024,176.50234759994783,176.5221337999683,176.5221337999683,176.5221337999683,177.02185469993856,177.02185469993856,178.4228658999782,['m'],[1.8935883999802172],[None],,,,,,,,,,,,,,,,,,,,,,,,,,,,,,,,,,,,,,,,,,,,,,,,,,,,,,,,,,,,,,,,,,,,,,,,,,910574,001,2024-07-31_14h39.54.205,final,2024.1.5,None,2024-07-31 14h39.57.809780 +0530,
images/5n.tiff,images/5n.tiff,,,,,,,0,4,4,4,,,,,,,,,,,,,178.4346355999587,,,,,,,,,,,,,,,,,,,,,,,,,,,,,,,,178.4240002000006,178.4346355999587,178.92811300000176,178.92815910000354,178.94123799994122,179.12805439997464,179.12808679998852,179.14496319997124,179.14496319997124,179.14496319997124,179.64769849996082,179.64769849996082,180.8488626999315,['z'],[1.6942551000975072],[None],,,,,,,,,,,,,,,,,,,,,,,,,,,,,,,,,,,,,,,,,,,,,,,,,,,,,,,,,,,,,,,,,,,,,,,,,,910574,001,2024-07-31_14h39.54.205,final,2024.1.5,None,2024-07-31 14h39.57.809780 +0530,
images/5n.tiff,images/5n.tiff,,,,,,,0,5,5,0,,,,,,,,,,,,,180.86051639996003,,,,,,,,,,,,,,,,,,,,,,,,,,,,,,,,180.85000129998662,180.86051639996003,181.35401679994538,181.35405189997982,181.36713579995558,181.5539229999995,181.5539529999951,181.5736867999658,181.5736867999658,181.5736867999658,182.0735335999634,182.0735335999634,183.19493559992407,['z'],[1.6185652000131086],[None],,,,,,,,,,,,,,,,,,,,,,,,,,,,,,,,,,,,,,,,,,,,,,,,,,,,,,,,,,,,,,,,,,,,,,,,,,910574,001,2024-07-31_14h39.54.205,final,2024.1.5,None,2024-07-31 14h39.57.809780 +0530,
images/10n.tiff,images/5n.tiff,,,,,,,1,0,6,3,,,,,,,,,,,,,183.20651960000396,,,,,,,,,,,,,,,,,,,,,,,,,,,,,,,,183.19615340000018,183.20651960000396,183.69984060002025,183.6998715000227,183.71303470002022,183.89978380000684,183.89981640002225,183.91789589996915,183.91789589996915,183.91789589996915,184.41942359996028,184.41942359996028,185.74056820000987,['m'],[1.817812699940987],[None],,,,,,,,,,,,,,,,,,,,,,,,,,,,,,,,,,,,,,,,,,,,,,,,,,,,,,,,,,,,,,,,,,,,,,,,,,910574,001,2024-07-31_14h39.54.205,final,2024.1.5,None,2024-07-31 14h39.57.809780 +0530,
images/5n.tiff,images/10n.tiff,,,,,,,1,1,7,1,,,,,,,,,,,,,185.75215189997107,,,,,,,,,,,,,,,,,,,,,,,,,,,,,,,,185.74170999997295,185.75215189997107,186.24563559994567,186.24566559994128,186.25882009998895,186.44560370000545,186.44563550001476,186.464954999974,186.464954999974,186.464954999974,186.96525489992928,186.96525489992928,187.85977330000605,['m'],[1.3821165000554174],[None],,,,,,,,,,,,,,,,,,,,,,,,,,,,,,,,,,,,,,,,,,,,,,,,,,,,,,,,,,,,,,,,,,,,,,,,,,910574,001,2024-07-31_14h39.54.205,final,2024.1.5,None,2024-07-31 14h39.57.809780 +0530,
images/5n.tiff,images/5n.tiff,,,,,,,1,2,8,4,,,,,,,,,,,,,187.87157690001186,,,,,,,,,,,,,,,,,,,,,,,,,,,,,,,,187.860899399966,187.87157690001186,188.36496279994026,188.36499379994348,188.37821529991925,188.56491219997406,188.56494509999175,188.58467190002557,188.58467190002557,188.58467190002557,189.08456729992758,189.08456729992758,190.16585539991502,['z'],[1.5752605999587104],[None],,,,,,,,,,,,,,,,,,,,,,,,,,,,,,,,,,,,,,,,,,,,,,,,,,,,,,,,,,,,,,,,,,,,,,,,,,910574,001,2024-07-31_14h39.54.205,final,2024.1.5,None,2024-07-31 14h39.57.809780 +0530,
images/5n.tiff,images/5n.tiff,,,,,,,1,3,9,0,,,,,,,,,,,,,190.17751900001895,,,,,,,,,,,,,,,,,,,,,,,,,,,,,,,,190.16716579999775,190.17751900001895,190.67093539994676,190.67096619994845,190.6840857999632,190.87082149996422,190.87085279996973,190.88955820002593,190.88955820002593,190.88955820002593,191.39045439998154,191.39045439998154,192.21828949998599,['z'],[1.3175849000690505],[None],,,,,,,,,,,,,,,,,,,,,,,,,,,,,,,,,,,,,,,,,,,,,,,,,,,,,,,,,,,,,,,,,,,,,,,,,,910574,001,2024-07-31_14h39.54.205,final,2024.1.5,None,2024-07-31 14h39.57.809780 +0530,
images/10n.tiff,images/10n.tiff,,,,,,,1,4,10,2,,,,,,,,,,,,,192.23015919991303,,,,,,,,,,,,,,,,,,,,,,,,,,,,,,,,192.21944739995524,192.23015919991303,192.72343030001502,192.72346519993152,192.73659370001405,192.92334629991092,192.92337929992937,192.94663889997173,192.94663889997173,192.94663889997173,193.44299649994355,193.44299649994355,194.24411440000404,['z'],[1.2850658000679687],[None],,,,,,,,,,,,,,,,,,,,,,,,,,,,,,,,,,,,,,,,,,,,,,,,,,,,,,,,,,,,,,,,,,,,,,,,,,910574,001,2024-07-31_14h39.54.205,final,2024.1.5,None,2024-07-31 14h39.57.809780 +0530,
images/10n.tiff,images/10n.tiff,,,,,,,1,5,11,5,,,,,,,,,,,,,194.25602009997237,,,,,,,,,,,,,,,,,,,,,,,,,,,,,,,,194.2452480000211,194.25602009997237,194.7495836999733,194.7496170999948,194.76268779998645,194.94935339991935,194.94938499992713,194.96700399997644,194.96700399997644,194.96700399997644,195.4690019999398,195.4690019999398,196.17721989995334,['z'],[1.2080741999670863],[None],,,,,,,,,,,,,,,,,,,,,,,,,,,,,,,,,,,,,,,,,,,,,,,,,,,,,,,,,,,,,,,,,,,,,,,,,,910574,001,2024-07-31_14h39.54.205,final,2024.1.5,None,2024-07-31 14h39.57.809780 +0530,
images/10n.tiff,images/5n.tiff,,,,,,,2,0,12,3,,,,,,,,,,,,,196.18871619994752,,,,,,,,,,,,,,,,,,,,,,,,,,,,,,,,196.17836419993546,196.18871619994752,196.68208890000824,196.68212229991332,196.69529429997783,196.88213339995127,196.8821656999644,196.90180849994067,196.90180849994067,196.90180849994067,197.40186579991132,197.40186579991132,198.36267129995394,['m'],[1.4495666000293568],[None],,,,,,,,,,,,,,,,,,,,,,,,,,,,,,,,,,,,,,,,,,,,,,,,,,,,,,,,,,,,,,,,,,,,,,,,,,910574,001,2024-07-31_14h39.54.205,final,2024.1.5,None,2024-07-31 14h39.57.809780 +0530,
images/5n.tiff,images/5n.tiff,,,,,,,2,1,13,0,,,,,,,,,,,,,198.3747678999789,,,,,,,,,,,,,,,,,,,,,,,,,,,,,,,,198.36410379991867,198.3747678999789,198.8680986999534,198.86814729997423,198.88145480002277,199.06802130001597,199.06805659993552,199.08636529999785,199.08636529999785,199.08636529999785,199.58765020000283,199.58765020000283,200.46880779997446,['z'],[1.3773043000837788],[None],,,,,,,,,,,,,,,,,,,,,,,,,,,,,,,,,,,,,,,,,,,,,,,,,,,,,,,,,,,,,,,,,,,,,,,,,,910574,001,2024-07-31_14h39.54.205,final,2024.1.5,None,2024-07-31 14h39.57.809780 +0530,
images/5n.tiff,images/5n.tiff,,,,,,,2,2,14,4,,,,,,,,,,,,,200.48052869993262,,,,,,,,,,,,,,,,,,,,,,,,,,,,,,,,200.4698469999712,200.48052869993262,200.9743376999395,200.97437049995642,200.98720989993308,201.17406599991955,201.17410059995018,201.1919073999161,201.1919073999161,201.1919073999161,201.69362959999125,201.69362959999125,202.48212760000024,['z'],[1.279233600012958],[None],,,,,,,,,,,,,,,,,,,,,,,,,,,,,,,,,,,,,,,,,,,,,,,,,,,,,,,,,,,,,,,,,,,,,,,,,,910574,001,2024-07-31_14h39.54.205,final,2024.1.5,None,2024-07-31 14h39.57.809780 +0530,
images/10n.tiff,images/10n.tiff,,,,,,,2,3,15,2,,,,,,,,,,,,,202.4933047000086,,,,,,,,,,,,,,,,,,,,,,,,,,,,,,,,202.4832779999124,202.4933047000086,202.98677069996484,202.9868020999711,202.99989510001615,203.1866262999829,203.18665779998992,203.20960519998334,203.20960519998334,203.20960519998334,203.70629969995935,203.70629969995935,204.49401369993575,['z'],[1.2779900000896305],[None],,,,,,,,,,,,,,,,,,,,,,,,,,,,,,,,,,,,,,,,,,,,,,,,,,,,,,,,,,,,,,,,,,,,,,,,,,910574,001,2024-07-31_14h39.54.205,final,2024.1.5,None,2024-07-31 14h39.57.809780 +0530,
images/10n.tiff,images/10n.tiff,,,,,,,2,4,16,5,,,,,,,,,,,,,204.50589309993666,,,,,,,,,,,,,,,,,,,,,,,,,,,,,,,,204.49516679998487,204.50589309993666,204.9995603999123,204.99959289992694,205.0125502999872,205.1993221999146,205.19935539993457,205.21825979999267,205.21825979999267,205.21825979999267,205.71906099992339,205.71906099992339,206.44027399993502,['z'],[1.212929300032556],[None],,,,,,,,,,,,,,,,,,,,,,,,,,,,,,,,,,,,,,,,,,,,,,,,,,,,,,,,,,,,,,,,,,,,,,,,,,910574,001,2024-07-31_14h39.54.205,final,2024.1.5,None,2024-07-31 14h39.57.809780 +0530,
images/5n.tiff,images/10n.tiff,,,,,,,2,5,17,1,,,,,,,,,,,,,206.45204100001138,,,,,,,,,,,,,,,,,,,,,,,,,,,,,,,,206.4414369999431,206.45204100001138,206.945547399926,206.94558149995282,206.95863879995886,207.14540879998822,207.14545549999457,207.16443110001273,207.16443110001273,207.16443110001273,207.6650194999529,207.6650194999529,208.49274130002595,['m'],[1.314983000047505],[None],,,,,,,,,,,,,,,,,,,,,,,,,,,,,,,,,,,,,,,,,,,,,,,,,,,,,,,,,,,,,,,,,,,,,,,,,,910574,001,2024-07-31_14h39.54.205,final,2024.1.5,None,2024-07-31 14h39.57.809780 +0530,
images/5n.tiff,images/5n.tiff,,,,,,,3,0,18,4,,,,,,,,,,,,,208.5046365999151,,,,,,,,,,,,,,,,,,,,,,,,,,,,,,,,208.49390709993895,208.5046365999151,208.99803929997142,208.99807019997388,209.01126950001344,209.19798289996106,209.19801269995514,209.21651049994398,209.21651049994398,209.21651049994398,209.71764149994124,209.71764149994124,210.93221749993972,['z'],[1.7107470000628382],[None],,,,,,,,,,,,,,,,,,,,,,,,,,,,,,,,,,,,,,,,,,,,,,,,,,,,,,,,,,,,,,,,,,,,,,,,,,910574,001,2024-07-31_14h39.54.205,final,2024.1.5,None,2024-07-31 14h39.57.809780 +0530,
images/10n.tiff,images/5n.tiff,,,,,,,3,1,19,3,,,,,,,,,,,,,210.943958299933,,,,,,,,,,,,,,,,,,,,,,,,,,,,,,,,210.933344900026,210.943958299933,211.4372150999261,211.4372458999278,211.45054799993522,211.63724209996872,211.6372731999727,211.65594740002416,211.65594740002416,211.65594740002416,212.1568910999922,212.1568910999922,213.9716510999715,['m'],[2.303624099935405],[None],,,,,,,,,,,,,,,,,,,,,,,,,,,,,,,,,,,,,,,,,,,,,,,,,,,,,,,,,,,,,,,,,,,,,,,,,,910574,001,2024-07-31_14h39.54.205,final,2024.1.5,None,2024-07-31 14h39.57.809780 +0530,
images/10n.tiff,images/10n.tiff,,,,,,,3,2,20,2,,,,,,,,,,,,,213.9829428999219,,,,,,,,,,,,,,,,,,,,,,,,,,,,,,,,213.97277459991165,213.9829428999219,214.47644559992477,214.47647819994017,214.48963419999927,214.6762417999562,214.67627289996017,214.69521409994923,214.69521409994923,214.69521409994923,215.19605429994408,215.19605429994408,216.21016279992182,['z'],[1.505227699992247],[None],,,,,,,,,,,,,,,,,,,,,,,,,,,,,,,,,,,,,,,,,,,,,,,,,,,,,,,,,,,,,,,,,,,,,,,,,,910574,001,2024-07-31_14h39.54.205,final,2024.1.5,None,2024-07-31 14h39.57.809780 +0530,
images/10n.tiff,images/10n.tiff,,,,,,,3,3,21,5,,,,,,,,,,,,,216.22211759991478,,,,,,,,,,,,,,,,,,,,,,,,,,,,,,,,216.2113392999163,216.22211759991478,216.71556489996146,216.71559829998296,216.72856359998696,216.91546279995237,216.91552079992834,216.93373439996503,216.93373439996503,216.93373439996503,217.4352006999543,217.4352006999543,218.19639489997644,['z'],[1.257652800064534],[None],,,,,,,,,,,,,,,,,,,,,,,,,,,,,,,,,,,,,,,,,,,,,,,,,,,,,,,,,,,,,,,,,,,,,,,,,,910574,001,2024-07-31_14h39.54.205,final,2024.1.5,None,2024-07-31 14h39.57.809780 +0530,
images/5n.tiff,images/10n.tiff,,,,,,,3,4,22,1,,,,,,,,,,,,,218.20821279997472,,,,,,,,,,,,,,,,,,,,,,,,,,,,,,,,218.19752049993258,218.20821279997472,218.70149959996343,218.7015301999636,218.7147373999469,218.90146029996686,218.90148979995865,218.92027619993314,218.92027619993314,218.92027619993314,219.4211591000203,219.4211591000203,221.7005912999157,['m'],[2.7674302000086755],[None],,,,,,,,,,,,,,,,,,,,,,,,,,,,,,,,,,,,,,,,,,,,,,,,,,,,,,,,,,,,,,,,,,,,,,,,,,910574,001,2024-07-31_14h39.54.205,final,2024.1.5,None,2024-07-31 14h39.57.809780 +0530,
images/5n.tiff,images/5n.tiff,,,,,,,3,5,23,0,,,,,,,,,,,,,221.71357759996317,,,,,,,,,,,,,,,,,,,,,,,,,,,,,,,,221.70098470000084,221.71357759996317,222.2070398000069,222.20707329991274,222.22022869996727,222.40708839998115,222.4071208999958,222.42533919995185,222.42533919995185,222.42533919995185,222.92678909993265,222.92678909993265,224.67430590000004,['z'],[2.246099999989383],[None],,,,,,,,,,,,,,,,,,,,,,,,,,,,,,,,,,,,,,,,,,,,,,,,,,,,,,,,,,,,,,,,,,,,,,,,,,910574,001,2024-07-31_14h39.54.205,final,2024.1.5,None,2024-07-31 14h39.57.809780 +0530,
images/10n.tiff,images/10n.tiff,,,,,,,4,0,24,2,,,,,,,,,,,,,224.68606440001167,,,,,,,,,,,,,,,,,,,,,,,,,,,,,,,,224.67542799992952,224.68606440001167,225.17937149992213,225.17940279992763,225.19286099995952,225.37952939991374,225.37955950002652,225.39914340001997,225.39914340001997,225.39914340001997,225.899081200012,225.899081200012,229.76583389996085,['z'],[4.360436600050889],[None],,,,,,,,,,,,,,,,,,,,,,,,,,,,,,,,,,,,,,,,,,,,,,,,,,,,,,,,,,,,,,,,,,,,,,,,,,910574,001,2024-07-31_14h39.54.205,final,2024.1.5,None,2024-07-31 14h39.57.809780 +0530,
images/5n.tiff,images/5n.tiff,,,,,,,4,1,25,4,,,,,,,,,,,,,229.77764969994314,,,,,,,,,,,,,,,,,,,,,,,,,,,,,,,,229.7671925999457,229.77764969994314,230.27113849995658,230.27116879995447,230.28423649992328,230.47105829999782,230.47108869999647,230.48974709992763,230.48974709992763,230.48974709992763,230.99062699999195,230.99062699999195,234.1382138999179,['z'],[3.6374004000099376],[None],,,,,,,,,,,,,,,,,,,,,,,,,,,,,,,,,,,,,,,,,,,,,,,,,,,,,,,,,,,,,,,,,,,,,,,,,,910574,001,2024-07-31_14h39.54.205,final,2024.1.5,None,2024-07-31 14h39.57.809780 +0530,
images/10n.tiff,images/10n.tiff,,,,,,,4,2,26,5,,,,,,,,,,,,,234.14970650000032,,,,,,,,,,,,,,,,,,,,,,,,,,,,,,,,234.13936879998073,234.14970650000032,234.64305279997643,234.6430849999888,234.65622479992453,234.84291130001657,234.84294359991327,234.86061049997807,234.86061049997807,234.86061049997807,235.36253939999733,235.36253939999733,236.28378389996942,['z'],[1.4108703000238165],[None],,,,,,,,,,,,,,,,,,,,,,,,,,,,,,,,,,,,,,,,,,,,,,,,,,,,,,,,,,,,,,,,,,,,,,,,,,910574,001,2024-07-31_14h39.54.205,final,2024.1.5,None,2024-07-31 14h39.57.809780 +0530,
images/5n.tiff,images/5n.tiff,,,,,,,4,3,27,0,,,,,,,,,,,,,236.29557780001778,,,,,,,,,,,,,,,,,,,,,,,,,,,,,,,,236.28496099996846,236.29557780001778,236.78893409995362,236.78896489995532,236.80208819999825,236.98884100001305,236.98887070000637,237.00754979997873,237.00754979997873,237.00754979997873,237.50849999999627,237.50849999999627,238.46962929994334,['z'],[1.4561246999073774],[None],,,,,,,,,,,,,,,,,,,,,,,,,,,,,,,,,,,,,,,,,,,,,,,,,,,,,,,,,,,,,,,,,,,,,,,,,,910574,001,2024-07-31_14h39.54.205,final,2024.1.5,None,2024-07-31 14h39.57.809780 +0530,
images/10n.tiff,images/5n.tiff,,,,,,,4,4,28,3,,,,,,,,,,,,,238.48149029992055,,,,,,,,,,,,,,,,,,,,,,,,,,,,,,,,238.47079439996742,238.48149029992055,238.97481899999548,238.9748413999332,238.988057199982,239.17482219997328,239.1748552999925,239.1931223999709,239.1931223999709,239.1931223999709,239.69446789997164,239.69446789997164,240.88233940000646,['m'],[1.6869774999795482],[None],,,,,,,,,,,,,,,,,,,,,,,,,,,,,,,,,,,,,,,,,,,,,,,,,,,,,,,,,,,,,,,,,,,,,,,,,,910574,001,2024-07-31_14h39.54.205,final,2024.1.5,None,2024-07-31 14h39.57.809780 +0530,
images/5n.tiff,images/10n.tiff,,,,,,,4,5,29,1,,,,,,,,,,,,,240.894022100023,,,,,,,,,,,,,,,,,,,,,,,,,,,,,,,,240.88350210001227,240.894022100023,241.38753289997112,241.387565299985,241.40070899995044,241.5873776000226,241.587409599917,241.60733279993292,241.60733279993292,241.60733279993292,242.1070101999212,242.1070101999212,243.22834079992026,['m'],[1.6084155000280589],[None],,,,,,,,,,,,,,,,,,,,,,,,,,,,,,,,,,,,,,,,,,,,,,,,,,,,,,,,,,,,,,,,,,,,,,,,,,910574,001,2024-07-31_14h39.54.205,final,2024.1.5,None,2024-07-31 14h39.57.809780 +0530,
images/10n.tiff,images/5n.tiff,,,,,,,5,0,30,3,,,,,,,,,,,,,243.2400068999268,,,,,,,,,,,,,,,,,,,,,,,,,,,,,,,,243.2295483999187,243.2400068999268,243.7332481999183,243.73328069993295,243.7464517999906,243.9332842999138,243.93331449991092,243.95476210000925,243.95476210000925,243.95476210000925,244.4529104999965,244.4529104999965,245.06754959991667,['m'],[1.1005962999770418],[None],,,,,,,,,,,,,,,,,,,,,,,,,,,,,,,,,,,,,,,,,,,,,,,,,,,,,,,,,,,,,,,,,,,,,,,,,,910574,001,2024-07-31_14h39.54.205,final,2024.1.5,None,2024-07-31 14h39.57.809780 +0530,
images/5n.tiff,images/5n.tiff,,,,,,,5,1,31,4,,,,,,,,,,,,,245.07933979993686,,,,,,,,,,,,,,,,,,,,,,,,,,,,,,,,245.0687158999499,245.07933979993686,245.5726474999683,245.57267869997304,245.58588889997918,245.77261540002655,245.7726480999263,245.79154799995013,245.79154799995013,245.79154799995013,246.29241150000598,246.29241150000598,247.26681960001588,['z'],[1.4717091000638902],[None],,,,,,,,,,,,,,,,,,,,,,,,,,,,,,,,,,,,,,,,,,,,,,,,,,,,,,,,,,,,,,,,,,,,,,,,,,910574,001,2024-07-31_14h39.54.205,final,2024.1.5,None,2024-07-31 14h39.57.809780 +0530,
images/5n.tiff,images/5n.tiff,,,,,,,5,2,32,0,,,,,,,,,,,,,247.27867679996416,,,,,,,,,,,,,,,,,,,,,,,,,,,,,,,,247.2679379999172,247.27867679996416,247.77212999993935,247.7721637999639,247.78520389995538,247.97196729993448,247.97199819993693,247.990133699961,247.990133699961,247.990133699961,248.49161529995035,248.49161529995035,249.69209459994454,['z'],[1.6897066000383347],[None],,,,,,,,,,,,,,,,,,,,,,,,,,,,,,,,,,,,,,,,,,,,,,,,,,,,,,,,,,,,,,,,,,,,,,,,,,910574,001,2024-07-31_14h39.54.205,final,2024.1.5,None,2024-07-31 14h39.57.809780 +0530,
images/10n.tiff,images/10n.tiff,,,,,,,5,3,33,5,,,,,,,,,,,,,249.70441819995176,,,,,,,,,,,,,,,,,,,,,,,,,,,,,,,,249.692704499932,249.70441819995176,250.19799369992688,250.19802789995447,250.21101959992666,250.39798769995105,250.39803849998862,250.4174499999499,250.4174499999499,250.4174499999499,250.9174288000213,250.9174288000213,252.31784869998228,['z'],[1.886761900037527],[None],,,,,,,,,,,,,,,,,,,,,,,,,,,,,,,,,,,,,,,,,,,,,,,,,,,,,,,,,,,,,,,,,,,,,,,,,,910574,001,2024-07-31_14h39.54.205,final,2024.1.5,None,2024-07-31 14h39.57.809780 +0530,
images/5n.tiff,images/10n.tiff,,,,,,,5,4,34,1,,,,,,,,,,,,,252.3303776999237,,,,,,,,,,,,,,,,,,,,,,,,,,,,,,,,252.31866529991385,252.3303776999237,252.82363779994193,252.82366849994287,252.83685919991694,253.0235754000023,253.02361949998885,253.0420328999171,253.0420328999171,253.0420328999171,253.54338409996126,253.54338409996126,254.2645393999992,['m'],[1.2139431999530643],[None],,,,,,,,,,,,,,,,,,,,,,,,,,,,,,,,,,,,,,,,,,,,,,,,,,,,,,,,,,,,,,,,,,,,,,,,,,910574,001,2024-07-31_14h39.54.205,final,2024.1.5,None,2024-07-31 14h39.57.809780 +0530,
images/10n.tiff,images/10n.tiff,,,,,,,5,5,35,2,,,,,,,,,,,,,254.27627039991785,,,,,,,,,,,,,,,,,,,,,,,,,,,,,,,,254.26575479994062,254.27627039991785,254.7694782000035,254.76949590002187,254.78288939991035,254.96958599996287,254.96961939998437,254.99181299994234,254.99181299994234,254.99181299994234,255.4893404999748,255.4893404999748,256.477147199912,['z'],[1.4798361000139266],[None],,,,,,,,,,,,,,,,,,,,,,,,,,,,,,,,,,,,,,,,,,,,,,,,,,,,,,,,,,,,,,,,,,,,,,,,,,910574,001,2024-07-31_14h39.54.205,final,2024.1.5,None,2024-07-31 14h39.57.809780 +0530,
images/10n.tiff,images/5n.tiff,,,,,,,6,0,36,3,,,,,,,,,,,,,256.48889769997913,,,,,,,,,,,,,,,,,,,,,,,,,,,,,,,,256.47820789995603,256.48889769997913,256.98234539991245,256.98237769992556,256.99546769994777,257.18228259996977,257.18231499998365,257.20061810000334,257.20061810000334,257.20061810000334,257.701937399921,257.701937399921,258.60997559991665,['m'],[1.3985642000334337],[None],,,,,,,,,,,,,,,,,,,,,,,,,,,,,,,,,,,,,,,,,,,,,,,,,,,,,,,,,,,,,,,,,,,,,,,,,,910574,001,2024-07-31_14h39.54.205,final,2024.1.5,None,2024-07-31 14h39.57.809780 +0530,
images/5n.tiff,images/5n.tiff,,,,,,,6,1,37,0,,,,,,,,,,,,,258.621501000016,,,,,,,,,,,,,,,,,,,,,,,,,,,,,,,,258.61109669995494,258.621501000016,259.1149196999613,259.114952599979,259.128226300003,259.3148753999267,259.3149097999558,259.3333307999419,259.3333307999419,259.3333307999419,259.8345155999996,259.8345155999996,261.0212193999905,['z'],[1.6747147999703884],[None],,,,,,,,,,,,,,,,,,,,,,,,,,,,,,,,,,,,,,,,,,,,,,,,,,,,,,,,,,,,,,,,,,,,,,,,,,910574,001,2024-07-31_14h39.54.205,final,2024.1.5,None,2024-07-31 14h39.57.809780 +0530,
images/10n.tiff,images/10n.tiff,,,,,,,6,2,38,2,,,,,,,,,,,,,261.0340834999224,,,,,,,,,,,,,,,,,,,,,,,,,,,,,,,,261.02180919994134,261.0340834999224,261.5274926999118,261.527523299912,261.5406104999129,261.72743660002016,261.7274641999975,261.7455405999208,261.7455405999208,261.7455405999208,262.24709869991057,262.24709869991057,263.1147362999618,['z'],[1.3578268999699503],[None],,,,,,,,,,,,,,,,,,,,,,,,,,,,,,,,,,,,,,,,,,,,,,,,,,,,,,,,,,,,,,,,,,,,,,,,,,910574,001,2024-07-31_14h39.54.205,final,2024.1.5,None,2024-07-31 14h39.57.809780 +0530,
images/5n.tiff,images/10n.tiff,,,,,,,6,3,39,1,,,,,,,,,,,,,263.12673509994056,,,,,,,,,,,,,,,,,,,,,,,,,,,,,,,,263.11588930001017,263.12673509994056,263.62019249994773,263.62024059996475,263.63327109999955,263.82013639993966,263.82016849995125,263.8409670999972,263.8409670999972,263.8409670999972,264.33968550001737,264.33968550001737,265.0745787000051,['m'],[1.2228711999487132],[None],,,,,,,,,,,,,,,,,,,,,,,,,,,,,,,,,,,,,,,,,,,,,,,,,,,,,,,,,,,,,,,,,,,,,,,,,,910574,001,2024-07-31_14h39.54.205,final,2024.1.5,None,2024-07-31 14h39.57.809780 +0530,
images/10n.tiff,images/10n.tiff,,,,,,,6,4,40,5,,,,,,,,,,,,,265.08590169996023,,,,,,,,,,,,,,,,,,,,,,,,,,,,,,,,265.07543440000154,265.08590169996023,265.579495199956,265.57952769997064,265.5926849999232,265.7794370999327,265.77946849993896,265.79745029995684,265.79745029995684,265.79745029995684,266.2990542999469,266.2990542999469,267.51355169992894,['z'],[1.7064258999889717],[None],,,,,,,,,,,,,,,,,,,,,,,,,,,,,,,,,,,,,,,,,,,,,,,,,,,,,,,,,,,,,,,,,,,,,,,,,,910574,001,2024-07-31_14h39.54.205,final,2024.1.5,None,2024-07-31 14h39.57.809780 +0530,
images/5n.tiff,images/5n.tiff,,,,,,,6,5,41,4,,,,,,,,,,,,,267.5252739000134,,,,,,,,,,,,,,,,,,,,,,,,,,,,,,,,267.51471000001766,267.5252739000134,268.01868149999063,268.01871480001137,268.03184979991056,268.21864839992486,268.2186816999456,268.23681229993235,268.23681229993235,268.23681229993235,268.7383593999548,268.7383593999548,269.8327232999727,['z'],[1.5865629999898374],[None],,,,,,,,,,,,,,,,,,,,,,,,,,,,,,,,,,,,,,,,,,,,,,,,,,,,,,,,,,,,,,,,,,,,,,,,,,910574,001,2024-07-31_14h39.54.205,final,2024.1.5,None,2024-07-31 14h39.57.809780 +0530,
images/5n.tiff,images/5n.tiff,,,,,,,7,0,42,0,,,,,,,,,,,,,269.8445517999353,,,,,,,,,,,,,,,,,,,,,,,,,,,,,,,,269.833883699961,269.8445517999353,270.3379479999421,270.3379805999575,270.3510701999767,270.53803940000944,270.5380732999183,270.55688940000255,270.55688940000255,270.55688940000255,271.0574667999754,271.0574667999754,271.9241310999496,['z'],[1.3543745999922976],[None],,,,,,,,,,,,,,,,,,,,,,,,,,,,,,,,,,,,,,,,,,,,,,,,,,,,,,,,,,,,,,,,,,,,,,,,,,910574,001,2024-07-31_14h39.54.205,final,2024.1.5,None,2024-07-31 14h39.57.809780 +0530,
images/5n.tiff,images/10n.tiff,,,,,,,7,1,43,1,,,,,,,,,,,,,271.9371192000108,,,,,,,,,,,,,,,,,,,,,,,,,,,,,,,,271.92450530000497,271.9371192000108,272.43050909996964,272.43054039997514,272.44394399994053,272.6304678999586,272.6304984999588,272.64991209993605,272.64991209993605,272.64991209993605,273.15012399991974,273.15012399991974,274.378055499983,['m'],[1.7259299999568611],[None],,,,,,,,,,,,,,,,,,,,,,,,,,,,,,,,,,,,,,,,,,,,,,,,,,,,,,,,,,,,,,,,,,,,,,,,,,910574,001,2024-07-31_14h39.54.205,final,2024.1.5,None,2024-07-31 14h39.57.809780 +0530,
images/10n.tiff,images/10n.tiff,,,,,,,7,2,44,2,,,,,,,,,,,,,274.3897007999476,,,,,,,,,,,,,,,,,,,,,,,,,,,,,,,,274.37921869999263,274.3897007999476,274.88311119994614,274.88314139994327,274.8962546000257,275.0830681999214,275.0830929999938,275.1043464000104,275.1043464000104,275.1043464000104,275.6026583999628,275.6026583999628,277.0704298999626,['z'],[1.9597088999580592],[None],,,,,,,,,,,,,,,,,,,,,,,,,,,,,,,,,,,,,,,,,,,,,,,,,,,,,,,,,,,,,,,,,,,,,,,,,,910574,001,2024-07-31_14h39.54.205,final,2024.1.5,None,2024-07-31 14h39.57.809780 +0530,
images/10n.tiff,images/5n.tiff,,,,,,,7,3,45,3,,,,,,,,,,,,,277.08218349993695,,,,,,,,,,,,,,,,,,,,,,,,,,,,,,,,277.07160309993196,277.08218349993695,277.5756005999865,277.5756345000118,277.58887370000593,277.77543259994127,277.77546519995667,277.79528239998035,277.79528239998035,277.79528239998035,278.29512899997644,278.29512899997644,279.0032105999999,['m'],[1.2040113999973983],[None],,,,,,,,,,,,,,,,,,,,,,,,,,,,,,,,,,,,,,,,,,,,,,,,,,,,,,,,,,,,,,,,,,,,,,,,,,910574,001,2024-07-31_14h39.54.205,final,2024.1.5,None,2024-07-31 14h39.57.809780 +0530,
images/10n.tiff,images/10n.tiff,,,,,,,7,4,46,5,,,,,,,,,,,,,279.0147141999332,,,,,,,,,,,,,,,,,,,,,,,,,,,,,,,,279.0043354999507,279.0147141999332,279.5082135000266,279.50824539992027,279.5212683000136,279.70817050000187,279.7082023000112,279.7258043999318,279.7258043999318,279.7258043999318,280.22785549995024,280.22785549995024,282.0952316999901,['z'],[2.3622260000556707],[None],,,,,,,,,,,,,,,,,,,,,,,,,,,,,,,,,,,,,,,,,,,,,,,,,,,,,,,,,,,,,,,,,,,,,,,,,,910574,001,2024-07-31_14h39.54.205,final,2024.1.5,None,2024-07-31 14h39.57.809780 +0530,
images/5n.tiff,images/5n.tiff,,,,,,,7,5,47,4,,,,,,,,,,,,,282.1071674999548,,,,,,,,,,,,,,,,,,,,,,,,,,,,,,,,282.0963525000261,282.1071674999548,282.60066120000556,282.6006913000019,282.6137699999381,282.80059709993657,282.80062839994207,282.81854989996646,282.81854989996646,282.81854989996646,283.32025180000346,283.32025180000346,284.3618849000195,['z'],[1.5329738999716938],[None],,,,,,,,,,,,,,,,,,,,,,,,,,,,,,,,,,,,,,,,,,,,,,,,,,,,,,,,,,,,,,,,,,,,,,,,,,910574,001,2024-07-31_14h39.54.205,final,2024.1.5,None,2024-07-31 14h39.57.809780 +0530,
images/10n.tiff,images/10n.tiff,,,,,,,8,0,48,2,,,,,,,,,,,,,284.37326069991104,,,,,,,,,,,,,,,,,,,,,,,,,,,,,,,,284.36306399991736,284.37326069991104,284.866649899981,284.86668390000705,284.87980110000353,285.0665003999602,285.06653159996495,285.0842236999888,285.0842236999888,285.0842236999888,285.58625970000867,285.58625970000867,286.2675112999277,['z'],[1.1790454000001773],[None],,,,,,,,,,,,,,,,,,,,,,,,,,,,,,,,,,,,,,,,,,,,,,,,,,,,,,,,,,,,,,,,,,,,,,,,,,910574,001,2024-07-31_14h39.54.205,final,2024.1.5,None,2024-07-31 14h39.57.809780 +0530,
images/5n.tiff,images/5n.tiff,,,,,,,8,1,49,0,,,,,,,,,,,,,286.27927079994697,,,,,,,,,,,,,,,,,,,,,,,,,,,,,,,,286.26870599994436,286.27927079994697,286.77260419994127,286.7726666999515,286.7857820999343,286.97257019998506,286.97260209999513,286.9926075999392,286.9926075999392,286.9926075999392,287.4922226999188,287.4922226999188,288.42680799996015,['z'],[1.4312719999579713],[None],,,,,,,,,,,,,,,,,,,,,,,,,,,,,,,,,,,,,,,,,,,,,,,,,,,,,,,,,,,,,,,,,,,,,,,,,,910574,001,2024-07-31_14h39.54.205,final,2024.1.5,None,2024-07-31 14h39.57.809780 +0530,
images/5n.tiff,images/5n.tiff,,,,,,,8,2,50,4,,,,,,,,,,,,,288.43866159999743,,,,,,,,,,,,,,,,,,,,,,,,,,,,,,,,288.4280036999844,288.43866159999743,288.9319345999975,288.9319590999512,288.9450643999735,289.13189259998035,289.13192359998357,289.1516264999518,289.1516264999518,289.1516264999518,289.651363199926,289.651363199926,290.2260043999413,['z'],[1.0634613999864087],[None],,,,,,,,,,,,,,,,,,,,,,,,,,,,,,,,,,,,,,,,,,,,,,,,,,,,,,,,,,,,,,,,,,,,,,,,,,910574,001,2024-07-31_14h39.54.205,final,2024.1.5,None,2024-07-31 14h39.57.809780 +0530,
images/5n.tiff,images/10n.tiff,,,,,,,8,3,51,1,,,,,,,,,,,,,290.2379953999771,,,,,,,,,,,,,,,,,,,,,,,,,,,,,,,,290.2271398999728,290.2379953999771,290.7313115999568,290.7313423999585,290.74452599999495,290.9312918999931,290.93132149998564,290.95168559998274,290.95168559998274,290.95168559998274,291.4509037999669,291.4509037999669,292.46546410000883,['m'],[1.5036317999474704],[None],,,,,,,,,,,,,,,,,,,,,,,,,,,,,,,,,,,,,,,,,,,,,,,,,,,,,,,,,,,,,,,,,,,,,,,,,,910574,001,2024-07-31_14h39.54.205,final,2024.1.5,None,2024-07-31 14h39.57.809780 +0530,
images/10n.tiff,images/10n.tiff,,,,,,,8,4,52,5,,,,,,,,,,,,,292.47723760001827,,,,,,,,,,,,,,,,,,,,,,,,,,,,,,,,292.4666643999517,292.47723760001827,292.9705961999716,292.97062949999236,292.98376999993343,293.17057660000864,293.1706085000187,293.19258819997776,293.19258819997776,293.19258819997776,293.6902145999484,293.6902145999484,294.4515541999135,['z'],[1.2553267000475898],[None],,,,,,,,,,,,,,,,,,,,,,,,,,,,,,,,,,,,,,,,,,,,,,,,,,,,,,,,,,,,,,,,,,,,,,,,,,910574,001,2024-07-31_14h39.54.205,final,2024.1.5,None,2024-07-31 14h39.57.809780 +0530,
images/10n.tiff,images/5n.tiff,,,,,,,8,5,53,3,,,,,,,,,,,,,294.4631793999579,,,,,,,,,,,,,,,,,,,,,,,,,,,,,,,,294.4527309000259,294.4631793999579,294.9566531999735,294.95668649999425,294.9697763000149,295.1565836999798,295.1566160999937,295.174518099986,295.174518099986,295.174518099986,295.6761890000198,295.6761890000198,297.183842599974,['m'],[2.000784100033343],[None],,,,,,,,,,,,,,,,,,,,,,,,,,,,,,,,,,,,,,,,,,,,,,,,,,,,,,,,,,,,,,,,,,,,,,,,,,910574,001,2024-07-31_14h39.54.205,final,2024.1.5,None,2024-07-31 14h39.57.809780 +0530,
images/10n.tiff,images/5n.tiff,,,,,,,9,0,54,3,,,,,,,,,,,,,297.19576049991883,,,,,,,,,,,,,,,,,,,,,,,,,,,,,,,,297.1849811999127,297.19576049991883,297.6890772000188,297.6891075000167,297.7022757999366,297.88898269995116,297.8890138999559,297.90745219995733,297.90745219995733,297.90745219995733,298.4086102999281,298.4086102999281,299.04975419992115,['m'],[1.1320545000489801],[None],,,,,,,,,,,,,,,,,,,,,,,,,,,,,,,,,,,,,,,,,,,,,,,,,,,,,,,,,,,,,,,,,,,,,,,,,,910574,001,2024-07-31_14h39.54.205,final,2024.1.5,None,2024-07-31 14h39.57.809780 +0530,
images/10n.tiff,images/10n.tiff,,,,,,,9,1,55,5,,,,,,,,,,,,,299.061733199982,,,,,,,,,,,,,,,,,,,,,,,,,,,,,,,,299.0506711999187,299.061733199982,299.5551807999145,299.5552126999246,299.5683041999582,299.7550896999892,299.75512139999773,299.7744580999715,299.7744580999715,299.7744580999715,300.2746778000146,300.2746778000146,300.7821582999313,['m'],[1.0007309999782592],[None],,,,,,,,,,,,,,,,,,,,,,,,,,,,,,,,,,,,,,,,,,,,,,,,,,,,,,,,,,,,,,,,,,,,,,,,,,910574,001,2024-07-31_14h39.54.205,final,2024.1.5,None,2024-07-31 14h39.57.809780 +0530,
images/10n.tiff,images/10n.tiff,,,,,,,9,2,56,2,,,,,,,,,,,,,300.79445389995817,,,,,,,,,,,,,,,,,,,,,,,,,,,,,,,,300.78292149992194,300.79445389995817,301.28799440001603,301.28802490001544,301.3010217999108,301.4877953999676,301.4878255999647,301.5059457999887,301.5059457999887,301.5059457999887,302.0074335000245,302.0074335000245,302.74209339998197,['z'],[1.2298072000266984],[None],,,,,,,,,,,,,,,,,,,,,,,,,,,,,,,,,,,,,,,,,,,,,,,,,,,,,,,,,,,,,,,,,,,,,,,,,,910574,001,2024-07-31_14h39.54.205,final,2024.1.5,None,2024-07-31 14h39.57.809780 +0530,
images/5n.tiff,images/10n.tiff,,,,,,,9,3,57,1,,,,,,,,,,,,,302.75386960001197,,,,,,,,,,,,,,,,,,,,,,,,,,,,,,,,302.7432186999358,302.75386960001197,303.2472035000101,303.2472364999121,303.2603940999834,303.4472748999251,303.44730889995117,303.46527960000094,303.46527960000094,303.46527960000094,303.96663549996447,303.96663549996447,304.7680871000048,['m'],[1.2946000999072567],[None],,,,,,,,,,,,,,,,,,,,,,,,,,,,,,,,,,,,,,,,,,,,,,,,,,,,,,,,,,,,,,,,,,,,,,,,,,910574,001,2024-07-31_14h39.54.205,final,2024.1.5,None,2024-07-31 14h39.57.809780 +0530,
images/5n.tiff,images/5n.tiff,,,,,,,9,4,58,4,,,,,,,,,,,,,304.7799601999577,,,,,,,,,,,,,,,,,,,,,,,,,,,,,,,,304.76925429992843,304.7799601999577,305.2730741999112,305.2730945999501,305.28635349997785,305.47308089991566,305.473104899982,305.490171500016,305.490171500016,305.490171500016,305.992757699918,305.992757699918,306.9275387999369,['z'],[1.4297799000050873],[None],,,,,,,,,,,,,,,,,,,,,,,,,,,,,,,,,,,,,,,,,,,,,,,,,,,,,,,,,,,,,,,,,,,,,,,,,,910574,001,2024-07-31_14h39.54.205,final,2024.1.5,None,2024-07-31 14h39.57.809780 +0530,
images/5n.tiff,images/5n.tiff,,,,,,,9,5,59,0,,,,,,,,,,,,,306.9391715999227,,,,,,,,,,,,,,,,,,,,,,,,,,,,,,,,306.9287198999664,306.9391715999227,307.4325807999121,307.4326108000241,307.44565749994945,307.6325048999861,307.63253609999083,307.65013409999665,307.65013409999665,307.65013409999665,308.15211539994925,308.15211539994925,309.4865958999144,['z'],[1.8290617999155074],[None],,,,,,,,,,,,,,,,,,,,,,,,,,,,,,,,,,,,,,,,,,,,,,,,,,,,,,,,,,,,,,,,,,,,,,,,,,910574,001,2024-07-31_14h39.54.205,final,2024.1.5,None,2024-07-31 14h39.57.809780 +0530,
,,,,,,,,,,,,,,,,,,,,,,,,,,,,,,,,,,,,,,,,,,,,,,,,,,,,,,,,,,,,,,,,,,,,,,,,309.48744079994503,309.49839829991106,309.49839829991106,324.3605762999505,space,14.861212100018747,None,,,,,,,,,,,,,,,,,,,,,,,,,,,,,,,,,,,,,,,,,,,,,,,,,,,,,,,,,,,,,,,,,,,910574,001,2024-07-31_14h39.54.205,final,2024.1.5,None,2024-07-31 14h39.57.809780 +0530,
images/18n.tiff,images/18n.tiff,,,,,,,,,,,0,0,0,5,,,,,,,,,324.3731619999744,,,,,,,,,,,,,,,,,,,,,,,,,,,,,,,,,,,,,,,,,,,,,,,,,,,,,,,324.3654280999908,324.3731619999744,324.86666319996584,324.8667088999646,324.87977539992426,325.06668139994144,325.06671559996903,325.08948369999416,325.08948369999416,325.08948369999416,325.5862546999706,325.5862546999706,327.5470475999173,['z'],[2.454069899977185],[None],,,,,,,,,,,,,,,,,,,,,,,,,,,,,,,,,,,,,,,,,,,,,,,,,,,910574,001,2024-07-31_14h39.54.205,final,2024.1.5,None,2024-07-31 14h39.57.809780 +0530,
images/4n.tiff,images/18n.tiff,,,,,,,,,,,0,1,1,0,,,,,,,,,327.5588717999635,,,,,,,,,,,,,,,,,,,,,,,,,,,,,,,,,,,,,,,,,,,,,,,,,,,,,,,327.5487685999833,327.5588717999635,328.0522117000073,328.05224340001587,328.065428199945,328.2522464999929,328.2522812000243,328.2717161999317,328.2717161999317,328.2717161999317,328.771877399995,328.771877399995,329.6396938000107,['m'],[1.3596534999087453],[None],,,,,,,,,,,,,,,,,,,,,,,,,,,,,,,,,,,,,,,,,,,,,,,,,,,910574,001,2024-07-31_14h39.54.205,final,2024.1.5,None,2024-07-31 14h39.57.809780 +0530,
images/18n.tiff,images/18n.tiff,,,,,,,,,,,0,2,2,3,,,,,,,,,329.65151409991086,,,,,,,,,,,,,,,,,,,,,,,,,,,,,,,,,,,,,,,,,,,,,,,,,,,,,,,329.640799399931,329.65151409991086,330.1449079000158,330.14494139992166,330.15809199993964,330.34489629999734,330.3449274000013,330.36538069997914,330.36538069997914,330.36538069997914,330.8645077999681,330.8645077999681,332.2921648999909,['z'],[1.9225735999643803],[None],,,,,,,,,,,,,,,,,,,,,,,,,,,,,,,,,,,,,,,,,,,,,,,,,,,910574,001,2024-07-31_14h39.54.205,final,2024.1.5,None,2024-07-31 14h39.57.809780 +0530,
images/4n.tiff,images/4n.tiff,,,,,,,,,,,0,3,3,1,,,,,,,,,332.3040313000092,,,,,,,,,,,,,,,,,,,,,,,,,,,,,,,,,,,,,,,,,,,,,,,,,,,,,,,332.29332749999594,332.3040313000092,332.79726159991696,332.7972855999833,332.810525399982,332.9975573999109,332.9975929999491,333.0163606000133,333.0163606000133,333.0163606000133,333.51702949998435,333.51702949998435,334.5581593000097,['z'],[1.5352116000140086],[None],,,,,,,,,,,,,,,,,,,,,,,,,,,,,,,,,,,,,,,,,,,,,,,,,,,910574,001,2024-07-31_14h39.54.205,final,2024.1.5,None,2024-07-31 14h39.57.809780 +0530,
images/4n.tiff,images/4n.tiff,,,,,,,,,,,0,4,4,4,,,,,,,,,334.5699488000246,,,,,,,,,,,,,,,,,,,,,,,,,,,,,,,,,,,,,,,,,,,,,,,,,,,,,,,334.55932599992957,334.5699488000246,335.06324449996464,335.0632755999686,335.0764603000134,335.2634704000084,335.26350539992563,335.28263709996827,335.28263709996827,335.28263709996827,335.7829330000095,335.7829330000095,336.58432289992925,['z'],[1.2930569000309333],[None],,,,,,,,,,,,,,,,,,,,,,,,,,,,,,,,,,,,,,,,,,,,,,,,,,,910574,001,2024-07-31_14h39.54.205,final,2024.1.5,None,2024-07-31 14h39.57.809780 +0530,
images/18n.tiff,images/4n.tiff,,,,,,,,,,,0,5,5,2,,,,,,,,,336.5961180999875,,,,,,,,,,,,,,,,,,,,,,,,,,,,,,,,,,,,,,,,,,,,,,,,,,,,,,,336.5855451999232,336.5961180999875,337.08934029995,337.0893748999806,337.1024946999969,337.28924810001627,337.289282899932,337.3076519999886,337.3076519999886,337.3076519999886,337.8088824999286,337.8088824999286,338.6101374999853,['m'],[1.2999859999399632],[None],,,,,,,,,,,,,,,,,,,,,,,,,,,,,,,,,,,,,,,,,,,,,,,,,,,910574,001,2024-07-31_14h39.54.205,final,2024.1.5,None,2024-07-31 14h39.57.809780 +0530,
images/4n.tiff,images/4n.tiff,,,,,,,,,,,1,0,6,1,,,,,,,,,338.62193649995606,,,,,,,,,,,,,,,,,,,,,,,,,,,,,,,,,,,,,,,,,,,,,,,,,,,,,,,338.6112768999301,338.62193649995606,339.1153432999272,339.1153768999502,339.12858989997767,339.31523750000633,339.3152694000164,339.33398400002625,339.33398400002625,339.33398400002625,339.8348682000069,339.8348682000069,343.10166019992903,['z'],[3.7539949000347406],[None],,,,,,,,,,,,,,,,,,,,,,,,,,,,,,,,,,,,,,,,,,,,,,,,,,,910574,001,2024-07-31_14h39.54.205,final,2024.1.5,None,2024-07-31 14h39.57.809780 +0530,
images/4n.tiff,images/18n.tiff,,,,,,,,,,,1,1,7,0,,,,,,,,,343.1137906999793,,,,,,,,,,,,,,,,,,,,,,,,,,,,,,,,,,,,,,,,,,,,,,,,,,,,,,,343.1028125999728,343.1137906999793,343.6072950999951,343.6073307999177,343.6204033999238,343.80681899993215,343.8068290000083,343.82117859995924,343.82117859995924,343.82117859995924,344.32678959995974,344.32678959995974,345.6742599999998,['m'],[1.8422759999521077],[None],,,,,,,,,,,,,,,,,,,,,,,,,,,,,,,,,,,,,,,,,,,,,,,,,,,910574,001,2024-07-31_14h39.54.205,final,2024.1.5,None,2024-07-31 14h39.57.809780 +0530,
images/18n.tiff,images/18n.tiff,,,,,,,,,,,1,2,8,3,,,,,,,,,345.6863905999344,,,,,,,,,,,,,,,,,,,,,,,,,,,,,,,,,,,,,,,,,,,,,,,,,,,,,,,345.67540830001235,345.6863905999344,346.1796388999792,346.1796721999999,346.1927922000177,346.3796890999656,346.3797229999909,346.3987776999129,346.3987776999129,346.3987776999129,346.8992668999126,346.8992668999126,348.2069892999716,['z'],[1.8010958000086248],[None],,,,,,,,,,,,,,,,,,,,,,,,,,,,,,,,,,,,,,,,,,,,,,,,,,,910574,001,2024-07-31_14h39.54.205,final,2024.1.5,None,2024-07-31 14h39.57.809780 +0530,
images/18n.tiff,images/18n.tiff,,,,,,,,,,,1,3,9,5,,,,,,,,,348.2187773999758,,,,,,,,,,,,,,,,,,,,,,,,,,,,,,,,,,,,,,,,,,,,,,,,,,,,,,,348.20813980000094,348.2187773999758,348.7121369999368,348.71216779993847,348.72532590001356,348.9120652999263,348.91209659993183,348.9309096999932,348.9309096999932,348.9309096999932,349.4317171999719,349.4317171999719,350.47311349993106,['z'],[1.5407582999905571],[None],,,,,,,,,,,,,,,,,,,,,,,,,,,,,,,,,,,,,,,,,,,,,,,,,,,910574,001,2024-07-31_14h39.54.205,final,2024.1.5,None,2024-07-31 14h39.57.809780 +0530,
images/18n.tiff,images/4n.tiff,,,,,,,,,,,1,4,10,2,,,,,,,,,350.48480410000775,,,,,,,,,,,,,,,,,,,,,,,,,,,,,,,,,,,,,,,,,,,,,,,,,,,,,,,350.47428119997494,350.48480410000775,350.97807700000703,350.9781132999342,350.99126059992705,351.1782096999232,351.1782445999561,351.19746519997716,351.19746519997716,351.19746519997716,351.6977282000007,351.6977282000007,352.31181649991777,['m'],[1.105998900020495],[None],,,,,,,,,,,,,,,,,,,,,,,,,,,,,,,,,,,,,,,,,,,,,,,,,,,910574,001,2024-07-31_14h39.54.205,final,2024.1.5,None,2024-07-31 14h39.57.809780 +0530,
images/4n.tiff,images/4n.tiff,,,,,,,,,,,1,5,11,4,,,,,,,,,352.32407690002583,,,,,,,,,,,,,,,,,,,,,,,,,,,,,,,,,,,,,,,,,,,,,,,,,,,,,,,352.3125742999837,352.32407690002583,352.81752799998503,352.8175622000126,352.83083009999245,353.01738189999014,353.01741630001925,353.03572579997126,353.03572579997126,353.03572579997126,353.53703909995966,353.53703909995966,355.0845850999467,['z'],[2.0437702999915928],[None],,,,,,,,,,,,,,,,,,,,,,,,,,,,,,,,,,,,,,,,,,,,,,,,,,,910574,001,2024-07-31_14h39.54.205,final,2024.1.5,None,2024-07-31 14h39.57.809780 +0530,
images/4n.tiff,images/18n.tiff,,,,,,,,,,,2,0,12,0,,,,,,,,,355.09660259995144,,,,,,,,,,,,,,,,,,,,,,,,,,,,,,,,,,,,,,,,,,,,,,,,,,,,,,,355.0857554000104,355.09660259995144,355.58994530001655,355.58997989993077,355.6030364999315,355.7898852999788,355.7899192000041,355.8081736000022,355.8081736000022,355.8081736000022,356.3094947999343,356.3094947999343,357.9904466000153,['z'],[2.175842799944803],[None],,,,,,,,,,,,,,,,,,,,,,,,,,,,,,,,,,,,,,,,,,,,,,,,,,,910574,001,2024-07-31_14h39.54.205,final,2024.1.5,None,2024-07-31 14h39.57.809780 +0530,
images/4n.tiff,images/4n.tiff,,,,,,,,,,,2,1,13,4,,,,,,,,,358.0022544999374,,,,,,,,,,,,,,,,,,,,,,,,,,,,,,,,,,,,,,,,,,,,,,,,,,,,,,,357.99158739997074,358.0022544999374,358.49559169996064,358.4956266999943,358.5087668999331,358.6955044999486,358.69553619995713,358.71413079998456,358.71413079998456,358.71413079998456,359.2151992999716,359.2151992999716,361.5225861999206,['m'],[2.8056293999543414],[None],,,,,,,,,,,,,,,,,,,,,,,,,,,,,,,,,,,,,,,,,,,,,,,,,,,910574,001,2024-07-31_14h39.54.205,final,2024.1.5,None,2024-07-31 14h39.57.809780 +0530,
images/4n.tiff,images/4n.tiff,,,,,,,,,,,2,2,14,1,,,,,,,,,361.53448519995436,,,,,,,,,,,,,,,,,,,,,,,,,,,,,,,,,,,,,,,,,,,,,,,,,,,,,,,361.52375139994547,361.53448519995436,362.0277505000122,362.02778389991727,362.0409648999339,362.22764439997263,362.22765619994607,362.24358170002233,362.24358170002233,362.24358170002233,362.7473523999797,362.7473523999797,363.4951925999485,['z'],[1.2445609000278637],[None],,,,,,,,,,,,,,,,,,,,,,,,,,,,,,,,,,,,,,,,,,,,,,,,,,,910574,001,2024-07-31_14h39.54.205,final,2024.1.5,None,2024-07-31 14h39.57.809780 +0530,
images/18n.tiff,images/4n.tiff,,,,,,,,,,,2,3,15,2,,,,,,,,,363.5071103000082,,,,,,,,,,,,,,,,,,,,,,,,,,,,,,,,,,,,,,,,,,,,,,,,,,,,,,,363.4963144999929,363.5071103000082,364.000426899991,364.00046150002163,364.01358949998394,364.20047939999495,364.2005111000035,364.2197656999342,364.2197656999342,364.2197656999342,364.7200244999258,364.7200244999258,365.76190719997976,['m'],[1.5403537000529468],[None],,,,,,,,,,,,,,,,,,,,,,,,,,,,,,,,,,,,,,,,,,,,,,,,,,,910574,001,2024-07-31_14h39.54.205,final,2024.1.5,None,2024-07-31 14h39.57.809780 +0530,
images/18n.tiff,images/18n.tiff,,,,,,,,,,,2,4,16,3,,,,,,,,,365.77305109996814,,,,,,,,,,,,,,,,,,,,,,,,,,,,,,,,,,,,,,,,,,,,,,,,,,,,,,,365.7630630999338,365.77305109996814,366.26630739995744,366.26633969997056,366.27956429996993,366.46636029996444,366.466394099989,366.48596889991313,366.48596889991313,366.48596889991313,366.98597379995044,366.98597379995044,367.9470520999748,['z'],[1.449838800006546],[None],,,,,,,,,,,,,,,,,,,,,,,,,,,,,,,,,,,,,,,,,,,,,,,,,,,910574,001,2024-07-31_14h39.54.205,final,2024.1.5,None,2024-07-31 14h39.57.809780 +0530,
images/18n.tiff,images/18n.tiff,,,,,,,,,,,2,5,17,5,,,,,,,,,367.9589581999462,,,,,,,,,,,,,,,,,,,,,,,,,,,,,,,,,,,,,,,,,,,,,,,,,,,,,,,367.9482206000248,367.9589581999462,368.45238929998595,368.45242400001734,368.46547359996475,368.6522768000141,368.6523120999336,368.67141349997837,368.67141349997837,368.67141349997837,369.17190509999637,369.17190509999637,369.70636459998786,['z'],[1.023929200018756],[None],,,,,,,,,,,,,,,,,,,,,,,,,,,,,,,,,,,,,,,,,,,,,,,,,,,910574,001,2024-07-31_14h39.54.205,final,2024.1.5,None,2024-07-31 14h39.57.809780 +0530,
images/4n.tiff,images/4n.tiff,,,,,,,,,,,3,0,18,1,,,,,,,,,369.7184026999166,,,,,,,,,,,,,,,,,,,,,,,,,,,,,,,,,,,,,,,,,,,,,,,,,,,,,,,369.7075652999338,369.7184026999166,370.21174019994214,370.2117738999659,370.22489640000276,370.4116936000064,370.411725700018,370.4321088999277,370.4321088999277,370.4321088999277,370.9314178000204,370.9314178000204,371.57273919996805,['z'],[1.1358475000597537],[None],,,,,,,,,,,,,,,,,,,,,,,,,,,,,,,,,,,,,,,,,,,,,,,,,,,910574,001,2024-07-31_14h39.54.205,final,2024.1.5,None,2024-07-31 14h39.57.809780 +0530,
images/18n.tiff,images/18n.tiff,,,,,,,,,,,3,1,19,5,,,,,,,,,371.5844127999153,,,,,,,,,,,,,,,,,,,,,,,,,,,,,,,,,,,,,,,,,,,,,,,,,,,,,,,371.5738475000253,371.5844127999153,372.07776909996755,372.077802099986,372.0909860000247,372.27778709994163,372.2778194999555,372.29738300002646,372.29738300002646,372.29738300002646,372.79736179998145,372.79736179998145,373.50574950000737,['z'],[1.2067919000983238],[None],,,,,,,,,,,,,,,,,,,,,,,,,,,,,,,,,,,,,,,,,,,,,,,,,,,910574,001,2024-07-31_14h39.54.205,final,2024.1.5,None,2024-07-31 14h39.57.809780 +0530,
images/4n.tiff,images/4n.tiff,,,,,,,,,,,3,2,20,4,,,,,,,,,373.5171268999111,,,,,,,,,,,,,,,,,,,,,,,,,,,,,,,,,,,,,,,,,,,,,,,,,,,,,,,373.50697260000743,373.5171268999111,374.0102074999595,374.01021590002347,374.0236533000134,374.21041469997726,374.2104491000064,374.2282063999446,374.2282063999446,374.2282063999446,374.7301494999556,374.7301494999556,375.45154719997663,['m'],[1.2116346000693738],[None],,,,,,,,,,,,,,,,,,,,,,,,,,,,,,,,,,,,,,,,,,,,,,,,,,,910574,001,2024-07-31_14h39.54.205,final,2024.1.5,None,2024-07-31 14h39.57.809780 +0530,
images/18n.tiff,images/4n.tiff,,,,,,,,,,,3,3,21,2,,,,,,,,,375.4632232999429,,,,,,,,,,,,,,,,,,,,,,,,,,,,,,,,,,,,,,,,,,,,,,,,,,,,,,,375.4527210999513,375.4632232999429,375.95613359997515,375.9561429999303,375.9696463999571,376.1561581999995,376.156170799979,376.17086509999353,376.17086509999353,376.17086509999353,376.6761498999549,376.6761498999549,377.4904726999812,['z'],[1.3090048999292776],[None],,,,,,,,,,,,,,,,,,,,,,,,,,,,,,,,,,,,,,,,,,,,,,,,,,,910574,001,2024-07-31_14h39.54.205,final,2024.1.5,None,2024-07-31 14h39.57.809780 +0530,
images/4n.tiff,images/18n.tiff,,,,,,,,,,,3,4,22,0,,,,,,,,,377.50271879998036,,,,,,,,,,,,,,,,,,,,,,,,,,,,,,,,,,,,,,,,,,,,,,,,,,,,,,,377.4916088000173,377.50271879998036,377.99591950001195,377.9959529999178,378.0090463999659,378.19582129991613,378.1958550999407,378.21665059996303,378.21665059996303,378.21665059996303,378.7155097000068,378.7155097000068,379.70335899991915,['m'],[1.4793030000291765],[None],,,,,,,,,,,,,,,,,,,,,,,,,,,,,,,,,,,,,,,,,,,,,,,,,,,910574,001,2024-07-31_14h39.54.205,final,2024.1.5,None,2024-07-31 14h39.57.809780 +0530,
images/18n.tiff,images/18n.tiff,,,,,,,,,,,3,5,23,3,,,,,,,,,379.71511939994525,,,,,,,,,,,,,,,,,,,,,,,,,,,,,,,,,,,,,,,,,,,,,,,,,,,,,,,379.7045485000126,379.71511939994525,380.20847950002644,380.20851389993913,380.2216165999416,380.40839390002657,380.40842679992784,380.4258585999487,380.4258585999487,380.4258585999487,380.92801939998753,380.92801939998753,381.5961084999144,['z'],[1.1578662000829354],[None],,,,,,,,,,,,,,,,,,,,,,,,,,,,,,,,,,,,,,,,,,,,,,,,,,,910574,001,2024-07-31_14h39.54.205,final,2024.1.5,None,2024-07-31 14h39.57.809780 +0530,
images/4n.tiff,images/4n.tiff,,,,,,,,,,,4,0,24,4,,,,,,,,,381.6078068999341,,,,,,,,,,,,,,,,,,,,,,,,,,,,,,,,,,,,,,,,,,,,,,,,,,,,,,,381.59739839995746,381.6078068999341,382.1011754999636,382.10120789997745,382.11446449998766,382.3011809999589,382.30121189996134,382.32255009992514,382.32255009992514,382.32255009992514,382.82078970002476,382.82078970002476,385.101384999929,['m'],[2.773175200098194],[None],,,,,,,,,,,,,,,,,,,,,,,,,,,,,,,,,,,,,,,,,,,,,,,,,,,910574,001,2024-07-31_14h39.54.205,final,2024.1.5,None,2024-07-31 14h39.57.809780 +0530,
images/18n.tiff,images/18n.tiff,,,,,,,,,,,4,1,25,3,,,,,,,,,385.11336959991604,,,,,,,,,,,,,,,,,,,,,,,,,,,,,,,,,,,,,,,,,,,,,,,,,,,,,,,385.1025433000177,385.11336959991604,385.60667499992996,385.6067069999408,385.6198461999884,385.80684360000305,385.80687749991193,385.82873750000726,385.82873750000726,385.82873750000726,386.32629210001323,386.32629210001323,387.59394809999503,['z'],[1.7628551999805495],[None],,,,,,,,,,,,,,,,,,,,,,,,,,,,,,,,,,,,,,,,,,,,,,,,,,,910574,001,2024-07-31_14h39.54.205,final,2024.1.5,None,2024-07-31 14h39.57.809780 +0530,
images/4n.tiff,images/4n.tiff,,,,,,,,,,,4,2,26,1,,,,,,,,,387.60584660002496,,,,,,,,,,,,,,,,,,,,,,,,,,,,,,,,,,,,,,,,,,,,,,,,,,,,,,,387.5950780999847,387.60584660002496,388.0992678999901,388.0993023000192,388.11235670000315,388.29913089994807,388.29916279995814,388.36170749994926,388.36170749994926,388.36170749994926,388.8587842999259,388.8587842999259,389.6868683999637,['z'],[1.317409300012514],[None],,,,,,,,,,,,,,,,,,,,,,,,,,,,,,,,,,,,,,,,,,,,,,,,,,,910574,001,2024-07-31_14h39.54.205,final,2024.1.5,None,2024-07-31 14h39.57.809780 +0530,
images/18n.tiff,images/4n.tiff,,,,,,,,,,,4,3,27,2,,,,,,,,,389.6985744999256,,,,,,,,,,,,,,,,,,,,,,,,,,,,,,,,,,,,,,,,,,,,,,,,,,,,,,,389.68805360002443,389.6985744999256,390.19190570001956,390.19193799991626,390.2051041999366,390.39181479997933,390.3918448999757,390.41421610000543,390.41421610000543,390.41421610000543,390.91164219996426,390.91164219996426,391.77914869994856,['m'],[1.3530369999352843],[None],,,,,,,,,,,,,,,,,,,,,,,,,,,,,,,,,,,,,,,,,,,,,,,,,,,910574,001,2024-07-31_14h39.54.205,final,2024.1.5,None,2024-07-31 14h39.57.809780 +0530,
images/4n.tiff,images/18n.tiff,,,,,,,,,,,4,4,28,0,,,,,,,,,391.7911386999767,,,,,,,,,,,,,,,,,,,,,,,,,,,,,,,,,,,,,,,,,,,,,,,,,,,,,,,391.7803063999163,391.7911386999767,392.2844702999573,392.28449120000005,392.29763990000356,392.4844111999264,392.4844439999433,392.50284789991565,392.50284789991565,392.50284789991565,393.00410020002164,393.00410020002164,394.7786135999486,['m'],[2.264723700005561],[None],,,,,,,,,,,,,,,,,,,,,,,,,,,,,,,,,,,,,,,,,,,,,,,,,,,910574,001,2024-07-31_14h39.54.205,final,2024.1.5,None,2024-07-31 14h39.57.809780 +0530,
images/18n.tiff,images/18n.tiff,,,,,,,,,,,4,5,29,5,,,,,,,,,394.79014980001375,,,,,,,,,,,,,,,,,,,,,,,,,,,,,,,,,,,,,,,,,,,,,,,,,,,,,,,394.7798293000087,394.79014980001375,395.2834948999807,395.28352820000146,395.2967910999432,395.4834344999399,395.48346669995226,395.50174400000833,395.50174400000833,395.50174400000833,396.00307839992456,396.00307839992456,396.88436809997074,['z'],[1.3781183999963105],[None],,,,,,,,,,,,,,,,,,,,,,,,,,,,,,,,,,,,,,,,,,,,,,,,,,,910574,001,2024-07-31_14h39.54.205,final,2024.1.5,None,2024-07-31 14h39.57.809780 +0530,
images/4n.tiff,images/18n.tiff,,,,,,,,,,,5,0,30,0,,,,,,,,,396.89627699996345,,,,,,,,,,,,,,,,,,,,,,,,,,,,,,,,,,,,,,,,,,,,,,,,,,,,,,,396.8854861999862,396.89627699996345,397.3896391999442,397.38967069995124,397.4027102999389,397.5894201999763,397.5894462999422,397.60696399991866,397.60696399991866,397.60696399991866,398.1090510999784,398.1090510999784,400.08336849999614,['m'],[2.4726760000921786],[None],,,,,,,,,,,,,,,,,,,,,,,,,,,,,,,,,,,,,,,,,,,,,,,,,,,910574,001,2024-07-31_14h39.54.205,final,2024.1.5,None,2024-07-31 14h39.57.809780 +0530,
images/18n.tiff,images/18n.tiff,,,,,,,,,,,5,1,31,5,,,,,,,,,400.0951583000133,,,,,,,,,,,,,,,,,,,,,,,,,,,,,,,,,,,,,,,,,,,,,,,,,,,,,,,400.0845371999312,400.0951583000133,400.58843509992585,400.58846559992526,400.6016775999451,400.78836769994814,400.7883959999308,400.8073000999866,400.8073000999866,400.8073000999866,401.30813000001945,401.30813000001945,402.162818599958,['z'],[1.3526103999465704],[None],,,,,,,,,,,,,,,,,,,,,,,,,,,,,,,,,,,,,,,,,,,,,,,,,,,910574,001,2024-07-31_14h39.54.205,final,2024.1.5,None,2024-07-31 14h39.57.809780 +0530,
images/18n.tiff,images/18n.tiff,,,,,,,,,,,5,2,32,3,,,,,,,,,402.1743726999266,,,,,,,,,,,,,,,,,,,,,,,,,,,,,,,,,,,,,,,,,,,,,,,,,,,,,,,402.16395419999026,402.1743726999266,402.66797399998177,402.66800689999945,402.6810827999143,402.8677824999904,402.8678135999944,402.8855437999591,402.8855437999591,402.8855437999591,403.38745779998135,403.38745779998135,409.74686019995715,['z'],[6.850330500048585],[None],,,,,,,,,,,,,,,,,,,,,,,,,,,,,,,,,,,,,,,,,,,,,,,,,,,910574,001,2024-07-31_14h39.54.205,final,2024.1.5,None,2024-07-31 14h39.57.809780 +0530,
images/18n.tiff,images/4n.tiff,,,,,,,,,,,5,3,33,2,,,,,,,,,409.7587293999968,,,,,,,,,,,,,,,,,,,,,,,,,,,,,,,,,,,,,,,,,,,,,,,,,,,,,,,409.7480264999904,409.7587293999968,410.25205749995075,410.2521235999884,410.2652128000045,410.45196320000105,410.45199500001036,410.4712988999672,410.4712988999672,410.4712988999672,410.971613499918,410.971613499918,411.90589149994776,['m'],[1.4238132999744266],[None],,,,,,,,,,,,,,,,,,,,,,,,,,,,,,,,,,,,,,,,,,,,,,,,,,,910574,001,2024-07-31_14h39.54.205,final,2024.1.5,None,2024-07-31 14h39.57.809780 +0530,
images/4n.tiff,images/4n.tiff,,,,,,,,,,,5,4,34,4,,,,,,,,,411.91807419992983,,,,,,,,,,,,,,,,,,,,,,,,,,,,,,,,,,,,,,,,,,,,,,,,,,,,,,,411.9070584999863,411.91807419992983,412.41144719999284,412.411482000025,412.42457279993687,412.6112757999217,412.61130400002,412.62904629996046,412.62904629996046,412.62904629996046,413.1311203999212,413.1311203999212,415.3318079999881,['m'],[2.6987994000082836],[None],,,,,,,,,,,,,,,,,,,,,,,,,,,,,,,,,,,,,,,,,,,,,,,,,,,910574,001,2024-07-31_14h39.54.205,final,2024.1.5,None,2024-07-31 14h39.57.809780 +0530,
images/4n.tiff,images/4n.tiff,,,,,,,,,,,5,5,35,1,,,,,,,,,415.34349240001757,,,,,,,,,,,,,,,,,,,,,,,,,,,,,,,,,,,,,,,,,,,,,,,,,,,,,,,415.33293409994803,415.34349240001757,415.83690110000316,415.83696300000884,415.8500274999533,416.03688569995575,416.0369181999704,416.0544506999431,416.0544506999431,416.0544506999431,416.5564816999249,416.5564816999249,418.3307897999184,['z'],[2.2727058000164106],[None],,,,,,,,,,,,,,,,,,,,,,,,,,,,,,,,,,,,,,,,,,,,,,,,,,,910574,001,2024-07-31_14h39.54.205,final,2024.1.5,None,2024-07-31 14h39.57.809780 +0530,
images/18n.tiff,images/18n.tiff,,,,,,,,,,,6,0,36,3,,,,,,,,,418.3425483999308,,,,,,,,,,,,,,,,,,,,,,,,,,,,,,,,,,,,,,,,,,,,,,,,,,,,,,,418.33192479994614,418.3425483999308,418.8359115999192,418.83594509994145,418.84906799998134,419.0358110999223,419.0358413999202,419.05420329992194,419.05420329992194,419.05420329992194,419.55547599995043,419.55547599995043,420.7699273999315,['z'],[1.7130947998957708],[None],,,,,,,,,,,,,,,,,,,,,,,,,,,,,,,,,,,,,,,,,,,,,,,,,,,910574,001,2024-07-31_14h39.54.205,final,2024.1.5,None,2024-07-31 14h39.57.809780 +0530,
images/18n.tiff,images/4n.tiff,,,,,,,,,,,6,1,37,2,,,,,,,,,420.7817882000236,,,,,,,,,,,,,,,,,,,,,,,,,,,,,,,,,,,,,,,,,,,,,,,,,,,,,,,420.77109639998525,420.7817882000236,421.27519999991637,421.2752347999485,421.28833449992817,421.4750574999489,421.47508939995896,421.4933788999915,421.4933788999915,421.4933788999915,421.9946914999746,421.9946914999746,423.0763159999624,['m'],[1.5704969000071287],[None],,,,,,,,,,,,,,,,,,,,,,,,,,,,,,,,,,,,,,,,,,,,,,,,,,,910574,001,2024-07-31_14h39.54.205,final,2024.1.5,None,2024-07-31 14h39.57.809780 +0530,
images/4n.tiff,images/4n.tiff,,,,,,,,,,,6,2,38,1,,,,,,,,,423.08782010001596,,,,,,,,,,,,,,,,,,,,,,,,,,,,,,,,,,,,,,,,,,,,,,,,,,,,,,,423.0774509999901,423.08782010001596,423.5811251999112,423.58116069994867,423.59427349991165,423.7809384999564,423.78096969996113,423.8005616000155,423.8005616000155,423.8005616000155,424.3005708999699,424.3005708999699,426.46110429998953,['z'],[2.6472163000144064],[None],,,,,,,,,,,,,,,,,,,,,,,,,,,,,,,,,,,,,,,,,,,,,,,,,,,910574,001,2024-07-31_14h39.54.205,final,2024.1.5,None,2024-07-31 14h39.57.809780 +0530,
images/4n.tiff,images/18n.tiff,,,,,,,,,,,6,3,39,0,,,,,,,,,426.4732235999545,,,,,,,,,,,,,,,,,,,,,,,,,,,,,,,,,,,,,,,,,,,,,,,,,,,,,,,426.4622253999114,426.4732235999545,426.9665340000065,426.9665666000219,426.9797672999557,427.1665762999328,427.16660869994666,427.18645249994006,427.18645249994006,427.18645249994006,427.68617310002446,427.68617310002446,428.90067220001947,['m'],[1.7007299999240786],[None],,,,,,,,,,,,,,,,,,,,,,,,,,,,,,,,,,,,,,,,,,,,,,,,,,,910574,001,2024-07-31_14h39.54.205,final,2024.1.5,None,2024-07-31 14h39.57.809780 +0530,
images/4n.tiff,images/4n.tiff,,,,,,,,,,,6,4,40,4,,,,,,,,,428.9124658999499,,,,,,,,,,,,,,,,,,,,,,,,,,,,,,,,,,,,,,,,,,,,,,,,,,,,,,,428.90183450002223,428.9124658999499,429.405762600014,429.40579579991754,429.418896600022,429.6057804999873,429.6058131000027,429.62502469995525,429.62502469995525,429.62502469995525,430.1253471999662,430.1253471999662,431.19306349998806,['z'],[1.5587544000009075],[None],,,,,,,,,,,,,,,,,,,,,,,,,,,,,,,,,,,,,,,,,,,,,,,,,,,910574,001,2024-07-31_14h39.54.205,final,2024.1.5,None,2024-07-31 14h39.57.809780 +0530,
images/18n.tiff,images/18n.tiff,,,,,,,,,,,6,5,41,5,,,,,,,,,431.2049915000098,,,,,,,,,,,,,,,,,,,,,,,,,,,,,,,,,,,,,,,,,,,,,,,,,,,,,,,431.19417549995705,431.2049915000098,431.6985783999553,431.6986111999722,431.71146229992155,431.8982896999223,431.89831650000997,431.91486359992996,431.91486359992996,431.91486359992996,432.41806549998,432.41806549998,433.3125051999232,['z'],[1.388992099906318],[None],,,,,,,,,,,,,,,,,,,,,,,,,,,,,,,,,,,,,,,,,,,,,,,,,,,910574,001,2024-07-31_14h39.54.205,final,2024.1.5,None,2024-07-31 14h39.57.809780 +0530,
images/4n.tiff,images/4n.tiff,,,,,,,,,,,7,0,42,4,,,,,,,,,433.3241786999861,,,,,,,,,,,,,,,,,,,,,,,,,,,,,,,,,,,,,,,,,,,,,,,,,,,,,,,433.3136322000064,433.3241786999861,433.81756549992133,433.81759699992836,433.8307334999554,434.01744399999734,434.0174754000036,434.0360998000251,434.0360998000251,434.0360998000251,434.53707949991804,434.53707949991804,435.57822519994806,['z'],[1.531648900010623],[None],,,,,,,,,,,,,,,,,,,,,,,,,,,,,,,,,,,,,,,,,,,,,,,,,,,910574,001,2024-07-31_14h39.54.205,final,2024.1.5,None,2024-07-31 14h39.57.809780 +0530,
images/4n.tiff,images/4n.tiff,,,,,,,,,,,7,1,43,1,,,,,,,,,435.59002030000556,,,,,,,,,,,,,,,,,,,,,,,,,,,,,,,,,,,,,,,,,,,,,,,,,,,,,,,435.5793785999995,435.59002030000556,436.0832818999188,436.0833072999958,436.0966044999659,436.2833604000043,436.28339290001895,436.30192110000644,436.30192110000644,436.30192110000644,436.8030582999345,436.8030582999345,437.1899255999597,['z'],[0.8819099999964237],[None],,,,,,,,,,,,,,,,,,,,,,,,,,,,,,,,,,,,,,,,,,,,,,,,,,,910574,001,2024-07-31_14h39.54.205,final,2024.1.5,None,2024-07-31 14h39.57.809780 +0530,
images/18n.tiff,images/18n.tiff,,,,,,,,,,,7,2,44,3,,,,,,,,,437.20281049993355,,,,,,,,,,,,,,,,,,,,,,,,,,,,,,,,,,,,,,,,,,,,,,,,,,,,,,,437.19029389997013,437.20281049993355,437.69633900001645,437.6963726999238,437.70944399992004,437.89589589997195,437.8959042999195,437.91141269996297,437.91141269996297,437.91141269996297,438.41581809998024,438.41581809998024,439.2035311999498,['z'],[1.2801238000392914],[None],,,,,,,,,,,,,,,,,,,,,,,,,,,,,,,,,,,,,,,,,,,,,,,,,,,910574,001,2024-07-31_14h39.54.205,final,2024.1.5,None,2024-07-31 14h39.57.809780 +0530,
images/4n.tiff,images/18n.tiff,,,,,,,,,,,7,3,45,0,,,,,,,,,439.2155182999559,,,,,,,,,,,,,,,,,,,,,,,,,,,,,,,,,,,,,,,,,,,,,,,,,,,,,,,439.2047046999214,439.2155182999559,439.70893069996964,439.7089648999972,439.72208029998,439.908842899953,439.90887849999126,439.9285223999759,439.9285223999759,439.9285223999759,440.428545899922,440.428545899922,441.13646449998487,['m'],[1.1995513000292704],[None],,,,,,,,,,,,,,,,,,,,,,,,,,,,,,,,,,,,,,,,,,,,,,,,,,,910574,001,2024-07-31_14h39.54.205,final,2024.1.5,None,2024-07-31 14h39.57.809780 +0530,
images/18n.tiff,images/4n.tiff,,,,,,,,,,,7,4,46,2,,,,,,,,,441.1482278999174,,,,,,,,,,,,,,,,,,,,,,,,,,,,,,,,,,,,,,,,,,,,,,,,,,,,,,,441.13760339992587,441.1482278999174,441.64160179998726,441.6416341000004,441.654868899961,441.8415292999707,441.8415735999588,441.8607392999111,441.8607392999111,441.8607392999111,442.3611705999356,442.3611705999356,442.9892141999444,['m'],[1.123033200041391],[None],,,,,,,,,,,,,,,,,,,,,,,,,,,,,,,,,,,,,,,,,,,,,,,,,,,910574,001,2024-07-31_14h39.54.205,final,2024.1.5,None,2024-07-31 14h39.57.809780 +0530,
images/18n.tiff,images/18n.tiff,,,,,,,,,,,7,5,47,5,,,,,,,,,443.00113099999726,,,,,,,,,,,,,,,,,,,,,,,,,,,,,,,,,,,,,,,,,,,,,,,,,,,,,,,442.99037959997077,443.00113099999726,443.49429940001573,443.494332299917,443.50750159996096,443.69423479994293,443.694266699953,443.71208119997755,443.71208119997755,443.71208119997755,444.21393009996973,444.21393009996973,444.855124099995,['z'],[1.1357769999885932],[None],,,,,,,,,,,,,,,,,,,,,,,,,,,,,,,,,,,,,,,,,,,,,,,,,,,910574,001,2024-07-31_14h39.54.205,final,2024.1.5,None,2024-07-31 14h39.57.809780 +0530,
images/18n.tiff,images/18n.tiff,,,,,,,,,,,8,0,48,5,,,,,,,,,444.86707769997884,,,,,,,,,,,,,,,,,,,,,,,,,,,,,,,,,,,,,,,,,,,,,,,,,,,,,,,444.8562731000129,444.86707769997884,445.3604183999123,445.36045709997416,445.3735820999136,445.56031670002267,445.5603488999186,445.57866609992925,445.57866609992925,445.57866609992925,446.0799650999252,446.0799650999252,446.80150429997593,['z'],[1.2209299000678584],[None],,,,,,,,,,,,,,,,,,,,,,,,,,,,,,,,,,,,,,,,,,,,,,,,,,,910574,001,2024-07-31_14h39.54.205,final,2024.1.5,None,2024-07-31 14h39.57.809780 +0530,
images/18n.tiff,images/18n.tiff,,,,,,,,,,,8,1,49,3,,,,,,,,,446.81305589992553,,,,,,,,,,,,,,,,,,,,,,,,,,,,,,,,,,,,,,,,,,,,,,,,,,,,,,,446.80261809995864,446.81305589992553,447.3065395000158,447.3065695000114,447.31968289997894,447.50634409999475,447.5063763000071,447.5242384999292,447.5242384999292,447.5242384999292,448.0259745999938,448.0259745999938,448.4540204999503,['z'],[0.9232353999977931],[None],,,,,,,,,,,,,,,,,,,,,,,,,,,,,,,,,,,,,,,,,,,,,,,,,,,910574,001,2024-07-31_14h39.54.205,final,2024.1.5,None,2024-07-31 14h39.57.809780 +0530,
images/18n.tiff,images/4n.tiff,,,,,,,,,,,8,2,50,2,,,,,,,,,448.4658637000248,,,,,,,,,,,,,,,,,,,,,,,,,,,,,,,,,,,,,,,,,,,,,,,,,,,,,,,448.45517239999026,448.4658637000248,448.95920619997196,448.9592415000079,448.972376300022,449.1591616999358,449.1591960999649,449.17772989999503,449.17772989999503,449.17772989999503,449.67895179998595,449.67895179998595,450.5864891000092,['m'],[1.3983320000115782],[None],,,,,,,,,,,,,,,,,,,,,,,,,,,,,,,,,,,,,,,,,,,,,,,,,,,910574,001,2024-07-31_14h39.54.205,final,2024.1.5,None,2024-07-31 14h39.57.809780 +0530,
images/4n.tiff,images/4n.tiff,,,,,,,,,,,8,3,51,1,,,,,,,,,450.59859499998856,,,,,,,,,,,,,,,,,,,,,,,,,,,,,,,,,,,,,,,,,,,,,,,,,,,,,,,450.5876961000031,450.59859499998856,451.09183289995417,451.09186559997033,451.105088399956,451.29179269995075,451.29182579996996,451.30973460001405,451.30973460001405,451.30973460001405,451.81143290002365,451.81143290002365,452.47985519992653,['z'],[1.1615211999742314],[None],,,,,,,,,,,,,,,,,,,,,,,,,,,,,,,,,,,,,,,,,,,,,,,,,,,910574,001,2024-07-31_14h39.54.205,final,2024.1.5,None,2024-07-31 14h39.57.809780 +0530,
images/4n.tiff,images/4n.tiff,,,,,,,,,,,8,4,52,4,,,,,,,,,452.4913106999593,,,,,,,,,,,,,,,,,,,,,,,,,,,,,,,,,,,,,,,,,,,,,,,,,,,,,,,452.48100049991626,452.4913106999593,452.98452910000924,452.9845615000231,452.99770449998323,453.18452939996496,453.18456149997655,453.20395919994917,453.20395919994917,453.20395919994917,453.7041417999426,453.7041417999426,454.94509349996224,['z'],[1.7394720000447705],[None],,,,,,,,,,,,,,,,,,,,,,,,,,,,,,,,,,,,,,,,,,,,,,,,,,,910574,001,2024-07-31_14h39.54.205,final,2024.1.5,None,2024-07-31 14h39.57.809780 +0530,
images/4n.tiff,images/18n.tiff,,,,,,,,,,,8,5,53,0,,,,,,,,,454.9570298999315,,,,,,,,,,,,,,,,,,,,,,,,,,,,,,,,,,,,,,,,,,,,,,,,,,,,,,,454.9458902999759,454.9570298999315,455.4504561999347,455.45049439999275,455.4635619999608,455.6503092999337,455.6503408999415,455.66835069993977,455.66835069993977,455.66835069993977,456.16996929992456,456.16996929992456,456.7975893999683,['m'],[1.1155919000739232],[None],,,,,,,,,,,,,,,,,,,,,,,,,,,,,,,,,,,,,,,,,,,,,,,,,,,910574,001,2024-07-31_14h39.54.205,final,2024.1.5,None,2024-07-31 14h39.57.809780 +0530,
images/18n.tiff,images/4n.tiff,,,,,,,,,,,9,0,54,2,,,,,,,,,456.8097766999854,,,,,,,,,,,,,,,,,,,,,,,,,,,,,,,,,,,,,,,,,,,,,,,,,,,,,,,456.79878579999786,456.8097766999854,457.30350649997126,457.30354019999504,457.3165771999629,457.5031783999875,457.5033039000118,457.5249256999232,457.5249256999232,457.5249256999232,458.02268729999196,458.02268729999196,458.77099959994666,['z'],[1.2426379000535235],[None],,,,,,,,,,,,,,,,,,,,,,,,,,,,,,,,,,,,,,,,,,,,,,,,,,,910574,001,2024-07-31_14h39.54.205,final,2024.1.5,None,2024-07-31 14h39.57.809780 +0530,
images/18n.tiff,images/18n.tiff,,,,,,,,,,,9,1,55,3,,,,,,,,,458.7824631999247,,,,,,,,,,,,,,,,,,,,,,,,,,,,,,,,,,,,,,,,,,,,,,,,,,,,,,,458.772179099964,458.7824631999247,459.27583759999834,459.275870100013,459.28903929993976,459.4758356999373,459.47587439999916,459.4941025999142,459.4941025999142,459.4941025999142,459.9954080999596,459.9954080999596,460.7567774999188,['z'],[1.2495509999571368],[None],,,,,,,,,,,,,,,,,,,,,,,,,,,,,,,,,,,,,,,,,,,,,,,,,,,910574,001,2024-07-31_14h39.54.205,final,2024.1.5,None,2024-07-31 14h39.57.809780 +0530,
images/4n.tiff,images/18n.tiff,,,,,,,,,,,9,2,56,0,,,,,,,,,460.76843519997783,,,,,,,,,,,,,,,,,,,,,,,,,,,,,,,,,,,,,,,,,,,,,,,,,,,,,,,460.75799559999723,460.76843519997783,461.26181199995335,461.26184930000454,461.27500759996474,461.46192619996145,461.4619589999784,461.48008110001683,461.48008110001683,461.48008110001683,461.9814960999647,461.9814960999647,462.68937459995504,['m'],[1.1991097999271005],[None],,,,,,,,,,,,,,,,,,,,,,,,,,,,,,,,,,,,,,,,,,,,,,,,,,,910574,001,2024-07-31_14h39.54.205,final,2024.1.5,None,2024-07-31 14h39.57.809780 +0530,
images/18n.tiff,images/18n.tiff,,,,,,,,,,,9,3,57,5,,,,,,,,,462.7011995000066,,,,,,,,,,,,,,,,,,,,,,,,,,,,,,,,,,,,,,,,,,,,,,,,,,,,,,,462.69047369994223,462.7011995000066,463.1948917999398,463.1949263999704,463.207808899926,463.39444629999343,463.3944773999974,463.4154880999122,463.4154880999122,463.4154880999122,463.9140976999188,463.9140976999188,464.98146339994855,['z'],[1.5519689000211656],[None],,,,,,,,,,,,,,,,,,,,,,,,,,,,,,,,,,,,,,,,,,,,,,,,,,,910574,001,2024-07-31_14h39.54.205,final,2024.1.5,None,2024-07-31 14h39.57.809780 +0530,
images/4n.tiff,images/4n.tiff,,,,,,,,,,,9,4,58,1,,,,,,,,,464.99386549997143,,,,,,,,,,,,,,,,,,,,,,,,,,,,,,,,,,,,,,,,,,,,,,,,,,,,,,,464.98218499997165,464.99386549997143,465.48722839995753,465.48726039996836,465.50039880000986,465.6869689999148,465.6869915999705,465.7033277999144,465.7033277999144,465.7033277999144,466.2067806000123,466.2067806000123,467.0612303999951,['z'],[1.3525707999942824],[None],,,,,,,,,,,,,,,,,,,,,,,,,,,,,,,,,,,,,,,,,,,,,,,,,,,910574,001,2024-07-31_14h39.54.205,final,2024.1.5,None,2024-07-31 14h39.57.809780 +0530,
images/4n.tiff,images/4n.tiff,,,,,,,,,,,9,5,59,4,,,,,,,,,467.07306369999424,,,,,,,,,,,,,,,,,,,,,,,,,,,,,,,,,,,,,,,,,,,,,,,,,,,,,,,467.06241319992114,467.07306369999424,467.56641259999014,467.5664598000003,467.579553199932,467.766351499944,467.76638109993655,467.78504559991416,467.78504559991416,467.78504559991416,468.28611390001606,468.28611390001606,468.78068690001965,['z'],[0.9903933999594301],[None],,,,,,,,,,,,,,,,,,,,,,,,,,,,,,,,,,,,,,,,,,,,,,,,,,,910574,001,2024-07-31_14h39.54.205,final,2024.1.5,None,2024-07-31 14h39.57.809780 +0530,
,,,,,,,,,,,,,,,,,,,,,,,,,,,,,,,,,,,,,,,,,,,,,,,,,,,,,,,,,,,,,,,,,,,,,,,,,,,,,,,,,,,,,,,,,,,,,,,468.7814823000226,468.7925241999328,468.7925241999328,470.20658609992824,space,1.4071489999769256,None,,,,,,,,,,,,,,,,,,,,,,,,,,,,,,,,,,,,,,,,,,,,910574,001,2024-07-31_14h39.54.205,final,2024.1.5,None,2024-07-31 14h39.57.809780 +0530,
images/5n.tiff,images/5n.tiff,,,,,,,,,,,,,,,0,0,0,2,,,,,470.2186002000235,,,,,,,,,,,,,,,,,,,,,,,,,,,,,,,,,,,,,,,,,,,,,,,,,,,,,,,,,,,,,,,,,,,,,,,,,,,,,,470.21330419997685,470.2186002000235,470.71233269991353,470.71236789994873,470.7252907999791,470.91196559998207,470.91199489997234,470.93421139998827,470.93421139998827,470.93421139998827,471.43160679994617,471.43160679994617,476.45881839992944,['z'],[5.52171110000927],[None],,,,,,,,,,,,,,,,,,,,,,,,,,,,910574,001,2024-07-31_14h39.54.205,final,2024.1.5,None,2024-07-31 14h39.57.809780 +0530,
images/10n.tiff,images/5n.tiff,,,,,,,,,,,,,,,0,1,1,7,,,,,476.4699066999601,,,,,,,,,,,,,,,,,,,,,,,,,,,,,,,,,,,,,,,,,,,,,,,,,,,,,,,,,,,,,,,,,,,,,,,,,,,,,,476.4603301999159,476.4699066999601,476.96345999999903,476.9634942000266,476.9766227999935,477.16344789997675,477.1634822000051,477.183473699959,477.183473699959,477.183473699959,477.6829246999696,477.6829246999696,479.59035119996406,['m'],[2.400400400045328],[None],,,,,,,,,,,,,,,,,,,,,,,,,,,,910574,001,2024-07-31_14h39.54.205,final,2024.1.5,None,2024-07-31 14h39.57.809780 +0530,
images/10n.tiff,images/10n.tiff,,,,,,,,,,,,,,,0,2,2,6,,,,,479.602259999956,,,,,,,,,,,,,,,,,,,,,,,,,,,,,,,,,,,,,,,,,,,,,,,,,,,,,,,,,,,,,,,,,,,,,,,,,,,,,,479.5914252999937,479.602259999956,480.09559529996477,480.0956300999969,480.1087738999631,480.29575669998303,480.295792000019,480.31519190000836,480.31519190000836,480.31519190000836,480.81533599994145,480.81533599994145,482.8822716999566,['z'],[2.5566944999154657],[None],,,,,,,,,,,,,,,,,,,,,,,,,,,,910574,001,2024-07-31_14h39.54.205,final,2024.1.5,None,2024-07-31 14h39.57.809780 +0530,
images/18n.tiff,images/4n.tiff,,,,,,,,,,,,,,,0,3,3,5,,,,,482.894478400005,,,,,,,,,,,,,,,,,,,,,,,,,,,,,,,,,,,,,,,,,,,,,,,,,,,,,,,,,,,,,,,,,,,,,,,,,,,,,,482.8830411999952,482.894478400005,483.3879941999912,483.38802780001424,483.40121039992664,483.58792800002266,483.5879599999171,483.6066390000051,483.6066390000051,483.6066390000051,484.1074156999821,484.1074156999821,485.3485959999962,['m'],[1.737258999957703],[None],,,,,,,,,,,,,,,,,,,,,,,,,,,,910574,001,2024-07-31_14h39.54.205,final,2024.1.5,None,2024-07-31 14h39.57.809780 +0530,
images/5n.tiff,images/10n.tiff,,,,,,,,,,,,,,,0,4,4,3,,,,,485.3604514999315,,,,,,,,,,,,,,,,,,,,,,,,,,,,,,,,,,,,,,,,,,,,,,,,,,,,,,,,,,,,,,,,,,,,,,,,,,,,,,485.34964049991686,485.3604514999315,485.85368369997013,485.8537173999939,485.8668779999716,486.0538054999197,486.0538374999305,486.07302279991563,486.07302279991563,486.07302279991563,486.5734778000042,486.5734778000042,487.8944455999881,['m'],[1.814704000018537],[None],,,,,,,,,,,,,,,,,,,,,,,,,,,,910574,001,2024-07-31_14h39.54.205,final,2024.1.5,None,2024-07-31 14h39.57.809780 +0530,
images/4n.tiff,images/4n.tiff,,,,,,,,,,,,,,,0,5,5,8,,,,,487.9062077999115,,,,,,,,,,,,,,,,,,,,,,,,,,,,,,,,,,,,,,,,,,,,,,,,,,,,,,,,,,,,,,,,,,,,,,,,,,,,,,487.89554059994407,487.9062077999115,488.39969499991275,488.3997295999434,488.41275449993555,488.5994955999777,488.5995297000045,488.62282209994737,488.62282209994737,488.62282209994737,489.11920309998095,489.11920309998095,489.9870038999943,['z'],[1.3527036999585107],[None],,,,,,,,,,,,,,,,,,,,,,,,,,,,910574,001,2024-07-31_14h39.54.205,final,2024.1.5,None,2024-07-31 14h39.57.809780 +0530,
images/4n.tiff,images/18n.tiff,,,,,,,,,,,,,,,0,6,6,1,,,,,489.9988886999199,,,,,,,,,,,,,,,,,,,,,,,,,,,,,,,,,,,,,,,,,,,,,,,,,,,,,,,,,,,,,,,,,,,,,,,,,,,,,,489.9880934000248,489.9988886999199,490.49221609998494,490.4922507000156,490.50538009998854,490.69216470001265,490.6921934999991,490.7096911999397,490.7096911999397,490.7096911999397,491.2117836999241,491.2117836999241,493.092749799951,['m'],[2.3785434999736026],[None],,,,,,,,,,,,,,,,,,,,,,,,,,,,910574,001,2024-07-31_14h39.54.205,final,2024.1.5,None,2024-07-31 14h39.57.809780 +0530,
images/18n.tiff,images/18n.tiff,,,,,,,,,,,,,,,0,7,7,4,,,,,493.1045127999969,,,,,,,,,,,,,,,,,,,,,,,,,,,,,,,,,,,,,,,,,,,,,,,,,,,,,,,,,,,,,,,,,,,,,,,,,,,,,,493.09382720000576,493.1045127999969,493.59795760002453,493.59801959991455,493.61105399997905,493.79780519998167,493.7978388000047,493.8157084999839,493.8157084999839,493.8157084999839,494.3174970999826,494.3174970999826,495.17185959999915,['z'],[1.343706600018777],[None],,,,,,,,,,,,,,,,,,,,,,,,,,,,910574,001,2024-07-31_14h39.54.205,final,2024.1.5,None,2024-07-31 14h39.57.809780 +0530,
images/4n.tiff,images/4n.tiff,,,,,,,,,,,,,,,0,8,8,0,,,,,495.18381820002105,,,,,,,,,,,,,,,,,,,,,,,,,,,,,,,,,,,,,,,,,,,,,,,,,,,,,,,,,,,,,,,,,,,,,,,,,,,,,,495.1729169000173,495.18381820002105,495.6772341999458,495.6772603999125,495.69034640002064,495.87709919991903,495.8771315999329,495.89489409991074,495.89489409991074,495.89489409991074,496.39683510002214,496.39683510002214,497.33105179993436,['z'],[1.4245028001023456],[None],,,,,,,,,,,,,,,,,,,,,,,,,,,,910574,001,2024-07-31_14h39.54.205,final,2024.1.5,None,2024-07-31 14h39.57.809780 +0530,
images/18n.tiff,images/18n.tiff,,,,,,,,,,,,,,,0,9,9,9,,,,,497.3430857999483,,,,,,,,,,,,,,,,,,,,,,,,,,,,,,,,,,,,,,,,,,,,,,,,,,,,,,,,,,,,,,,,,,,,,,,,,,,,,,497.33211730001494,497.3430857999483,497.83645950001664,497.8364912000252,497.8497157000238,498.0364025000017,498.0364363999106,498.05427570000757,498.05427570000757,498.05427570000757,498.55612949992064,498.55612949992064,500.1836939000059,['m'],[2.120923899929039],[None],,,,,,,,,,,,,,,,,,,,,,,,,,,,910574,001,2024-07-31_14h39.54.205,final,2024.1.5,None,2024-07-31 14h39.57.809780 +0530,
images/10n.tiff,images/10n.tiff,,,,,,,,,,,,,,,0,10,10,11,,,,,500.1956260999432,,,,,,,,,,,,,,,,,,,,,,,,,,,,,,,,,,,,,,,,,,,,,,,,,,,,,,,,,,,,,,,,,,,,,,,,,,,,,,500.18479229998775,500.1956260999432,500.6889098000247,500.6889428999275,500.7022010999499,500.88866059994325,500.88868470001034,500.9078454999253,500.9078454999253,500.9078454999253,501.4086317999754,501.4086317999754,502.98269979993347,['z'],[2.067331700003706],[None],,,,,,,,,,,,,,,,,,,,,,,,,,,,910574,001,2024-07-31_14h39.54.205,final,2024.1.5,None,2024-07-31 14h39.57.809780 +0530,
images/5n.tiff,images/5n.tiff,,,,,,,,,,,,,,,0,11,11,10,,,,,502.9945415999973,,,,,,,,,,,,,,,,,,,,,,,,,,,,,,,,,,,,,,,,,,,,,,,,,,,,,,,,,,,,,,,,,,,,,,,,,,,,,,502.98375140002463,502.9945415999973,503.48811109992675,503.48814579995815,503.50114269996993,503.68792599998415,503.6879603000125,503.7067184000043,503.7067184000043,503.7067184000043,504.20756349992007,504.20756349992007,504.7286795999389,['z'],[1.0130993999773636],[None],,,,,,,,,,,,,,,,,,,,,,,,,,,,910574,001,2024-07-31_14h39.54.205,final,2024.1.5,None,2024-07-31 14h39.57.809780 +0530,
images/10n.tiff,images/5n.tiff,,,,,,,,,,,,,,,1,0,12,7,,,,,504.7406808999367,,,,,,,,,,,,,,,,,,,,,,,,,,,,,,,,,,,,,,,,,,,,,,,,,,,,,,,,,,,,,,,,,,,,,,,,,,,,,,504.72981769999024,504.7406808999367,505.23407649993896,505.23411229997873,505.2472347000148,505.4339188999729,505.43394499993883,505.45079759997316,505.45079759997316,505.45079759997316,505.953843700001,505.953843700001,506.60829359991476,['m'],[1.148492999956943],[None],,,,,,,,,,,,,,,,,,,,,,,,,,,,910574,001,2024-07-31_14h39.54.205,final,2024.1.5,None,2024-07-31 14h39.57.809780 +0530,
images/18n.tiff,images/18n.tiff,,,,,,,,,,,,,,,1,1,13,9,,,,,506.62004109995905,,,,,,,,,,,,,,,,,,,,,,,,,,,,,,,,,,,,,,,,,,,,,,,,,,,,,,,,,,,,,,,,,,,,,,,,,,,,,,506.6093638999155,506.62004109995905,507.1133996999124,507.1134353999514,507.1265831999481,507.31337280001026,507.31340689992066,507.3313877999317,507.3313877999317,507.3313877999317,507.8330180000048,507.8330180000048,508.6074771999847,['z'],[1.2680489000631496],[None],,,,,,,,,,,,,,,,,,,,,,,,,,,,910574,001,2024-07-31_14h39.54.205,final,2024.1.5,None,2024-07-31 14h39.57.809780 +0530,
images/4n.tiff,images/4n.tiff,,,,,,,,,,,,,,,1,2,14,8,,,,,508.61945979995653,,,,,,,,,,,,,,,,,,,,,,,,,,,,,,,,,,,,,,,,,,,,,,,,,,,,,,,,,,,,,,,,,,,,,,,,,,,,,,508.6085431999527,508.61945979995653,509.11278869991656,509.11282419995405,509.12592040002346,509.31284449994564,509.31287909997627,509.331005099928,509.331005099928,509.331005099928,509.8323545999592,509.8323545999592,510.87341829994693,['z'],[1.532242099987343],[None],,,,,,,,,,,,,,,,,,,,,,,,,,,,910574,001,2024-07-31_14h39.54.205,final,2024.1.5,None,2024-07-31 14h39.57.809780 +0530,
images/5n.tiff,images/5n.tiff,,,,,,,,,,,,,,,1,3,15,10,,,,,510.88532459991984,,,,,,,,,,,,,,,,,,,,,,,,,,,,,,,,,,,,,,,,,,,,,,,,,,,,,,,,,,,,,,,,,,,,,,,,,,,,,,510.87451939994935,510.88532459991984,511.3786829999881,511.378717900021,511.3918385999277,511.5788064999506,511.5788413999835,511.5974582999479,511.5974582999479,511.5974582999479,512.0983728999272,512.0983728999272,513.5793288999703,['z'],[1.9702772999880835],[None],,,,,,,,,,,,,,,,,,,,,,,,,,,,910574,001,2024-07-31_14h39.54.205,final,2024.1.5,None,2024-07-31 14h39.57.809780 +0530,
images/5n.tiff,images/10n.tiff,,,,,,,,,,,,,,,1,4,16,3,,,,,513.5911489999853,,,,,,,,,,,,,,,,,,,,,,,,,,,,,,,,,,,,,,,,,,,,,,,,,,,,,,,,,,,,,,,,,,,,,,,,,,,,,,513.5803971999558,513.5911489999853,514.0845164000057,514.0845534999389,514.0976085999282,514.2844597999938,514.2844917000039,514.3040398999583,514.3040398999583,514.3040398999583,514.8040666999295,514.8040666999295,516.1383724999614,['m'],[1.8319575000787154],[None],,,,,,,,,,,,,,,,,,,,,,,,,,,,910574,001,2024-07-31_14h39.54.205,final,2024.1.5,None,2024-07-31 14h39.57.809780 +0530,
images/10n.tiff,images/10n.tiff,,,,,,,,,,,,,,,1,5,17,6,,,,,516.1502617999213,,,,,,,,,,,,,,,,,,,,,,,,,,,,,,,,,,,,,,,,,,,,,,,,,,,,,,,,,,,,,,,,,,,,,,,,,,,,,,516.1394442999735,516.1502617999213,516.6436399000231,516.6436751999427,516.6568318000063,516.8437824000139,516.8438140000217,516.8641282999888,516.8641282999888,516.8641282999888,517.3632140000118,517.3632140000118,518.430955399992,['z'],[1.5592865999788046],[None],,,,,,,,,,,,,,,,,,,,,,,,,,,,910574,001,2024-07-31_14h39.54.205,final,2024.1.5,None,2024-07-31 14h39.57.809780 +0530,
images/4n.tiff,images/18n.tiff,,,,,,,,,,,,,,,1,6,18,1,,,,,518.4428497999907,,,,,,,,,,,,,,,,,,,,,,,,,,,,,,,,,,,,,,,,,,,,,,,,,,,,,,,,,,,,,,,,,,,,,,,,,,,,,,518.4320633999305,518.4428497999907,518.9361800999613,518.9362134999828,518.9493766999803,519.1362015999621,519.1362354999874,519.1555534999352,519.1555534999352,519.1555534999352,519.6558765999507,519.6558765999507,521.6033204999985,['m'],[2.436080600018613],[None],,,,,,,,,,,,,,,,,,,,,,,,,,,,910574,001,2024-07-31_14h39.54.205,final,2024.1.5,None,2024-07-31 14h39.57.809780 +0530,
images/5n.tiff,images/5n.tiff,,,,,,,,,,,,,,,1,7,19,2,,,,,521.6151930999476,,,,,,,,,,,,,,,,,,,,,,,,,,,,,,,,,,,,,,,,,,,,,,,,,,,,,,,,,,,,,,,,,,,,,,,,,,,,,,521.6044059999986,521.6151930999476,522.1085031999974,522.1085376999108,522.1216351999901,522.3084876999492,522.308521399973,522.3267727999482,522.3267727999482,522.3267727999482,522.8282169000013,522.8282169000013,526.3474837000249,['m'],[4.009286800050177],[None],,,,,,,,,,,,,,,,,,,,,,,,,,,,910574,001,2024-07-31_14h39.54.205,final,2024.1.5,None,2024-07-31 14h39.57.809780 +0530,
images/10n.tiff,images/10n.tiff,,,,,,,,,,,,,,,1,8,20,11,,,,,526.3602425999707,,,,,,,,,,,,,,,,,,,,,,,,,,,,,,,,,,,,,,,,,,,,,,,,,,,,,,,,,,,,,,,,,,,,,,,,,,,,,,526.347726500011,526.3602425999707,526.8534518999513,526.8534623999149,526.8666616999544,527.0532523000147,527.0532617999706,527.0679134000093,527.0679134000093,527.0679134000093,527.573295500013,527.573295500013,529.0946131999372,['z'],[2.012342600035481],[None],,,,,,,,,,,,,,,,,,,,,,,,,,,,910574,001,2024-07-31_14h39.54.205,final,2024.1.5,None,2024-07-31 14h39.57.809780 +0530,
images/4n.tiff,images/4n.tiff,,,,,,,,,,,,,,,1,9,21,0,,,,,529.1062746000243,,,,,,,,,,,,,,,,,,,,,,,,,,,,,,,,,,,,,,,,,,,,,,,,,,,,,,,,,,,,,,,,,,,,,,,,,,,,,,529.096094999928,529.1062746000243,529.5995400999673,529.5995720999781,529.6127329999581,529.7997060000198,529.7997427999508,529.8180245999247,529.8180245999247,529.8180245999247,530.3190971999429,530.3190971999429,531.4669406999601,['z'],[1.645208999980241],[None],,,,,,,,,,,,,,,,,,,,,,,,,,,,910574,001,2024-07-31_14h39.54.205,final,2024.1.5,None,2024-07-31 14h39.57.809780 +0530,
images/18n.tiff,images/4n.tiff,,,,,,,,,,,,,,,1,10,22,5,,,,,531.4786970999558,,,,,,,,,,,,,,,,,,,,,,,,,,,,,,,,,,,,,,,,,,,,,,,,,,,,,,,,,,,,,,,,,,,,,,,,,,,,,,531.4678984999191,531.4786970999558,531.9720319999615,531.9720652999822,531.9851869000122,532.17201999994,532.172049799934,532.1961690000026,532.1961690000026,532.1961690000026,532.6917090999195,532.6917090999195,533.9061147000175,['m'],[1.7001104999799281],[None],,,,,,,,,,,,,,,,,,,,,,,,,,,,910574,001,2024-07-31_14h39.54.205,final,2024.1.5,None,2024-07-31 14h39.57.809780 +0530,
images/18n.tiff,images/18n.tiff,,,,,,,,,,,,,,,1,11,23,4,,,,,533.9179499999154,,,,,,,,,,,,,,,,,,,,,,,,,,,,,,,,,,,,,,,,,,,,,,,,,,,,,,,,,,,,,,,,,,,,,,,,,,,,,,533.9072646999266,533.9179499999154,534.4112765999744,534.4113103999989,534.4244291000068,534.6112172999419,534.6112655999605,534.6291969999438,534.6291969999438,534.6291969999438,535.1308070999803,535.1308070999803,536.6651268999558,['z'],[2.0269214001018554],[None],,,,,,,,,,,,,,,,,,,,,,,,,,,,910574,001,2024-07-31_14h39.54.205,final,2024.1.5,None,2024-07-31 14h39.57.809780 +0530,
images/5n.tiff,images/10n.tiff,,,,,,,,,,,,,,,2,0,24,3,,,,,536.6770505999448,,,,,,,,,,,,,,,,,,,,,,,,,,,,,,,,,,,,,,,,,,,,,,,,,,,,,,,,,,,,,,,,,,,,,,,,,,,,,,536.6662618999835,536.6770505999448,537.1703126999782,537.1703601999907,537.183492399985,537.3704299000092,537.3704634999158,537.3889926999109,537.3889926999109,537.3889926999109,537.8899087000173,537.8899087000173,538.6909748999169,['m'],[1.2907117999857292],[None],,,,,,,,,,,,,,,,,,,,,,,,,,,,910574,001,2024-07-31_14h39.54.205,final,2024.1.5,None,2024-07-31 14h39.57.809780 +0530,
