face_images_1,face_images_2,pos_1,pos_2,trials_30.thisRepN,trials_30.thisTrialN,trials_30.thisN,trials_30.thisIndex,main_1.thisRepN,main_1.thisTrialN,main_1.thisN,main_1.thisIndex,main_2.thisRepN,main_2.thisTrialN,main_2.thisN,main_2.thisIndex,main_3.thisRepN,main_3.thisTrialN,main_3.thisN,main_3.thisIndex,main_4.thisRepN,main_4.thisTrialN,main_4.thisN,main_4.thisIndex,thisRow.t,notes,Instruction.started,text_Welcome.started,key_space.started,Instruction.stopped,key_space.keys,key_space.rt,key_space.duration,gap.started,text_gap.started,gap.stopped,plus.started,plus__.started,plus.stopped,trial_30.started,image_1.started,image_2.started,trial_resp.started,image_1.stopped,image_2.stopped,trial_30.stopped,trial_resp.keys,trial_resp.rt,trial_resp.duration,Instruction_1.started,text_instruct.started,space_resp.started,Instruction_1.stopped,space_resp.keys,space_resp.rt,space_resp.duration,gap_1.started,gap__1.started,gap_1.stopped,plus_1.started,plus__1.started,plus_1.stopped,Block_1.started,image_1_set_1.started,image_2_set_1.started,resp_1.started,image_1_set_1.stopped,image_2_set_1.stopped,Block_1.stopped,resp_1.keys,resp_1.rt,resp_1.duration,Instuct_2.started,text_block2.started,space_resp_2.started,Instuct_2.stopped,space_resp_2.keys,space_resp_2.rt,space_resp_2.duration,gap_2.started,gap__2.started,gap_2.stopped,plus_2.started,plus__2.started,plus_2.stopped,Block_2.started,image_1_set_2.started,image_2_set_2.started,resp_2.started,image_1_set_2.stopped,image_2_set_2.stopped,Block_2.stopped,resp_2.keys,resp_2.rt,resp_2.duration,Instruct_3.started,text_block3.started,space_resp_3.started,Instruct_3.stopped,space_resp_3.keys,space_resp_3.rt,space_resp_3.duration,gap_3.started,gap__3.started,gap_3.stopped,plus_3.started,plus__3.started,plus_3.stopped,Block_3.started,image_1_set_3.started,image_2_set_3.started,resp_3.started,image_1_set_3.stopped,image_2_set_3.stopped,Block_3.stopped,resp_3.keys,resp_3.rt,resp_3.duration,Instruct_4.started,text_block4.started,space_resp_4.started,Instruct_4.stopped,space_resp_4.keys,space_resp_4.rt,space_resp_4.duration,gap_4.started,gap__4.started,gap_4.stopped,plus_4.started,plus___4.started,plus_4.stopped,Block_4.started,image_1_set_4.started,image_2_set_4.started,resp_4.started,image_1_set_4.stopped,image_2_set_4.stopped,Block_4.stopped,resp_4.keys,resp_4.rt,resp_4.duration,end.started,text_3.started,text_3.stopped,end.stopped,participant,session,date,expName,psychopyVersion,frameRate,expStart,
,,,,,,,,,,,,,,,,,,,,,,,,,,0.0052978000003349734,0.007787600000483508,0.007787600000483508,1.7447259999999005,['space'],[1.7234091000000262],[None],,,,,,,,,,,,,,,,,,,,,,,,,,,,,,,,,,,,,,,,,,,,,,,,,,,,,,,,,,,,,,,,,,,,,,,,,,,,,,,,,,,,,,,,,,,,,,,,,,,,,,,,,,,,,,,,,938793,001,2024-07-31_16h52.21.770,final,2024.1.5,None,2024-07-31 16h52.24.912822 +0530,
images/5n.tiff,images/10n.tiff,"(0.3, 0.2)","(-0.3, 0.2)",0,0,0,5,,,,,,,,,,,,,,,,,1.7538653000001432,,,,,,,,,1.751831100000345,1.7538653000001432,2.2467193000002226,2.2467531000002054,2.2598110999997516,2.4466388999999253,2.4466708999998446,2.4739423999999417,2.4739423999999417,2.4739423999999417,2.9794965000000957,2.9794965000000957,3.927332100000058,['m'],[1.4415139000002455],[None],,,,,,,,,,,,,,,,,,,,,,,,,,,,,,,,,,,,,,,,,,,,,,,,,,,,,,,,,,,,,,,,,,,,,,,,,,,,,,,,,,,,,,,,,,,,,,,,,938793,001,2024-07-31_16h52.21.770,final,2024.1.5,None,2024-07-31 16h52.24.912822 +0530,
images/10n.tiff,images/5n.tiff,"(0.3, 0.2)","(-0.3, 0.2)",0,1,1,27,,,,,,,,,,,,,,,,,3.9391679999998814,,,,,,,,,3.928700800000115,3.9391679999998814,4.432625399999779,4.4326575000004595,4.4458024000005025,4.63265760000013,4.6326890999998795,4.651624199999787,4.651624199999787,4.651624199999787,5.15222999999969,5.15222999999969,7.9527561000004425,['m'],[3.2877705000000788],[None],,,,,,,,,,,,,,,,,,,,,,,,,,,,,,,,,,,,,,,,,,,,,,,,,,,,,,,,,,,,,,,,,,,,,,,,,,,,,,,,,,,,,,,,,,,,,,,,,938793,001,2024-07-31_16h52.21.770,final,2024.1.5,None,2024-07-31 16h52.24.912822 +0530,
images/4n.tiff,images/10n.tiff,"(0.3, 0.2)","(-0.3, 0.2)",0,2,2,1,,,,,,,,,,,,,,,,,7.9646702000000005,,,,,,,,,7.953766999999971,7.9646702000000005,8.457895600000484,8.457926000000043,8.471124700000473,8.657841899999767,8.657872200000384,8.675143399999797,8.675143399999797,8.675143399999797,9.177472000000307,9.177472000000307,9.67210040000009,['m'],[0.9921369000003324],[None],,,,,,,,,,,,,,,,,,,,,,,,,,,,,,,,,,,,,,,,,,,,,,,,,,,,,,,,,,,,,,,,,,,,,,,,,,,,,,,,,,,,,,,,,,,,,,,,,938793,001,2024-07-31_16h52.21.770,final,2024.1.5,None,2024-07-31 16h52.24.912822 +0530,
images/5n.tiff,images/4n.tiff,"(0.3, 0.2)","(-0.3, 0.2)",0,3,3,26,,,,,,,,,,,,,,,,,9.684031499999946,,,,,,,,,9.672848299999714,9.684031499999946,10.17732369999976,10.177353699999912,10.190872099999979,10.377239499999632,10.377270500000122,10.395453400000406,10.395453400000406,10.395453400000406,10.896891700000197,10.896891700000197,11.245619299999817,['m'],[0.8483476000001247],[None],,,,,,,,,,,,,,,,,,,,,,,,,,,,,,,,,,,,,,,,,,,,,,,,,,,,,,,,,,,,,,,,,,,,,,,,,,,,,,,,,,,,,,,,,,,,,,,,,938793,001,2024-07-31_16h52.21.770,final,2024.1.5,None,2024-07-31 16h52.24.912822 +0530,
images/4n.tiff,images/18n.tiff,"(0.3, 0.2)","(-0.3, 0.2)",0,4,4,18,,,,,,,,,,,,,,,,,11.256808799999817,,,,,,,,,11.246583799999826,11.256808799999817,11.750277899999674,11.750308100000439,11.763442700000269,11.950193900000158,11.950296199999684,11.968227299999853,11.968227299999853,11.968227299999853,12.469868299999689,12.469868299999689,12.831380599999648,['m'],[0.8586756000004243],[None],,,,,,,,,,,,,,,,,,,,,,,,,,,,,,,,,,,,,,,,,,,,,,,,,,,,,,,,,,,,,,,,,,,,,,,,,,,,,,,,,,,,,,,,,,,,,,,,,938793,001,2024-07-31_16h52.21.770,final,2024.1.5,None,2024-07-31 16h52.24.912822 +0530,
images/5n.tiff,images/4n.tiff,"(0.3, 0.2)","(-0.3, 0.2)",0,5,5,4,,,,,,,,,,,,,,,,,12.84297880000031,,,,,,,,,12.832198099999914,12.84297880000031,13.336232900000141,13.336264000000483,13.349561099999846,13.536428600000363,13.536458700000367,13.555050199999641,13.555050199999641,13.555050199999641,14.055828700000347,14.055828700000347,14.630931700000474,['m'],[1.0716468999999051],[None],,,,,,,,,,,,,,,,,,,,,,,,,,,,,,,,,,,,,,,,,,,,,,,,,,,,,,,,,,,,,,,,,,,,,,,,,,,,,,,,,,,,,,,,,,,,,,,,,938793,001,2024-07-31_16h52.21.770,final,2024.1.5,None,2024-07-31 16h52.24.912822 +0530,
images/18n.tiff,images/4n.tiff,"(0.3, 0.2)","(-0.3, 0.2)",0,6,6,12,,,,,,,,,,,,,,,,,14.642585800000234,,,,,,,,,14.631933200000276,14.642585800000234,15.135711599999922,15.135741000000053,15.149011999999857,15.335579599999619,15.335609200000363,15.356592699999965,15.356592699999965,15.356592699999965,15.855271000000357,15.855271000000357,16.39043539999966,['m'],[1.029970300000059],[None],,,,,,,,,,,,,,,,,,,,,,,,,,,,,,,,,,,,,,,,,,,,,,,,,,,,,,,,,,,,,,,,,,,,,,,,,,,,,,,,,,,,,,,,,,,,,,,,,938793,001,2024-07-31_16h52.21.770,final,2024.1.5,None,2024-07-31 16h52.24.912822 +0530,
images/4n.tiff,images/4n.tiff,"(0.3, 0.2)","(-0.3, 0.2)",0,7,7,3,,,,,,,,,,,,,,,,,16.401971600000252,,,,,,,,,16.39126099999976,16.401971600000252,16.89524319999964,16.895273400000406,16.90848360000018,17.09521490000043,17.09524919999967,17.113296399999854,17.113296399999854,17.113296399999854,17.61466389999987,17.61466389999987,18.935615500000495,['z'],[1.817430900000545],[None],,,,,,,,,,,,,,,,,,,,,,,,,,,,,,,,,,,,,,,,,,,,,,,,,,,,,,,,,,,,,,,,,,,,,,,,,,,,,,,,,,,,,,,,,,,,,,,,,938793,001,2024-07-31_16h52.21.770,final,2024.1.5,None,2024-07-31 16h52.24.912822 +0530,
images/10n.tiff,images/5n.tiff,"(0.3, 0.2)","(-0.3, 0.2)",0,8,8,9,,,,,,,,,,,,,,,,,18.94784570000047,,,,,,,,,18.936338200000137,18.94784570000047,19.441022099999827,19.44105169999966,19.454093999999714,19.64096789999985,19.64099679999981,19.66112460000022,19.66112460000022,19.66112460000022,20.16062200000033,20.16062200000033,20.78829599999972,['m'],[1.1174363000000085],[None],,,,,,,,,,,,,,,,,,,,,,,,,,,,,,,,,,,,,,,,,,,,,,,,,,,,,,,,,,,,,,,,,,,,,,,,,,,,,,,,,,,,,,,,,,,,,,,,,938793,001,2024-07-31_16h52.21.770,final,2024.1.5,None,2024-07-31 16h52.24.912822 +0530,
images/5n.tiff,images/18n.tiff,"(0.3, 0.2)","(-0.3, 0.2)",0,9,9,6,,,,,,,,,,,,,,,,,20.800439100000403,,,,,,,,,20.78914850000001,20.800439100000403,21.293637200000376,21.29366899999968,21.306920900000478,21.49363009999979,21.493661299999985,21.513466600000356,21.513466600000356,21.513466600000356,22.013360199999624,22.013360199999624,22.78727220000019,['m'],[1.2660513999999239],[None],,,,,,,,,,,,,,,,,,,,,,,,,,,,,,,,,,,,,,,,,,,,,,,,,,,,,,,,,,,,,,,,,,,,,,,,,,,,,,,,,,,,,,,,,,,,,,,,,938793,001,2024-07-31_16h52.21.770,final,2024.1.5,None,2024-07-31 16h52.24.912822 +0530,
images/18n.tiff,images/4n.tiff,"(0.3, 0.2)","(-0.3, 0.2)",0,10,10,29,,,,,,,,,,,,,,,,,22.799730100000488,,,,,,,,,22.787754799999675,22.799730100000488,23.29304729999967,23.29308250000031,23.306324099999983,23.492955599999732,23.492986400000518,23.51512090000051,23.51512090000051,23.51512090000051,24.01266630000009,24.01266630000009,25.534044600000016,['m'],[2.015675500000725],[None],,,,,,,,,,,,,,,,,,,,,,,,,,,,,,,,,,,,,,,,,,,,,,,,,,,,,,,,,,,,,,,,,,,,,,,,,,,,,,,,,,,,,,,,,,,,,,,,,938793,001,2024-07-31_16h52.21.770,final,2024.1.5,None,2024-07-31 16h52.24.912822 +0530,
images/18n.tiff,images/10n.tiff,"(0.3, 0.2)","(-0.3, 0.2)",0,11,11,14,,,,,,,,,,,,,,,,,25.545371700000032,,,,,,,,,25.535079000000223,25.545371700000032,26.038920199999666,26.038953399999627,26.051930900000116,26.23897130000023,26.23900500000036,26.25814619999983,26.25814619999983,26.25814619999983,26.75843900000018,26.75843900000018,27.572273499999937,['z'],[1.3046940000003815],[None],,,,,,,,,,,,,,,,,,,,,,,,,,,,,,,,,,,,,,,,,,,,,,,,,,,,,,,,,,,,,,,,,,,,,,,,,,,,,,,,,,,,,,,,,,,,,,,,,938793,001,2024-07-31_16h52.21.770,final,2024.1.5,None,2024-07-31 16h52.24.912822 +0530,
images/5n.tiff,images/5n.tiff,"(0.3, 0.2)","(-0.3, 0.2)",0,12,12,7,,,,,,,,,,,,,,,,,27.58501830000023,,,,,,,,,27.572837200000322,27.58501830000023,28.078260999999657,28.07829270000002,28.09120830000029,28.278133499999967,28.27816729999995,28.29751110000052,28.29751110000052,28.29751110000052,28.797825399999965,28.797825399999965,31.2775687000003,['z'],[2.9690417000001617],[None],,,,,,,,,,,,,,,,,,,,,,,,,,,,,,,,,,,,,,,,,,,,,,,,,,,,,,,,,,,,,,,,,,,,,,,,,,,,,,,,,,,,,,,,,,,,,,,,,938793,001,2024-07-31_16h52.21.770,final,2024.1.5,None,2024-07-31 16h52.24.912822 +0530,
images/4n.tiff,images/5n.tiff,"(0.3, 0.2)","(-0.3, 0.2)",0,13,13,16,,,,,,,,,,,,,,,,,31.290213700000095,,,,,,,,,31.277916600000026,31.290213700000095,31.783747200000107,31.783777599999667,31.796787100000074,31.983558200000516,31.98358400000052,32.0002900999998,32.0002900999998,32.0002900999998,32.50328569999965,32.50328569999965,33.0382924000005,['m'],[1.0350594000001365],[None],,,,,,,,,,,,,,,,,,,,,,,,,,,,,,,,,,,,,,,,,,,,,,,,,,,,,,,,,,,,,,,,,,,,,,,,,,,,,,,,,,,,,,,,,,,,,,,,,938793,001,2024-07-31_16h52.21.770,final,2024.1.5,None,2024-07-31 16h52.24.912822 +0530,
images/5n.tiff,images/5n.tiff,"(0.3, 0.2)","(-0.3, 0.2)",0,14,14,22,,,,,,,,,,,,,,,,,33.04960889999984,,,,,,,,,33.039318000000094,33.04960889999984,33.543068900000435,33.54310220000025,33.55638470000031,33.74307210000006,33.743101000000024,33.764848699999675,33.764848699999675,33.764848699999675,34.26278040000034,34.26278040000034,35.2237554000003,['z'],[1.446211299999959],[None],,,,,,,,,,,,,,,,,,,,,,,,,,,,,,,,,,,,,,,,,,,,,,,,,,,,,,,,,,,,,,,,,,,,,,,,,,,,,,,,,,,,,,,,,,,,,,,,,938793,001,2024-07-31_16h52.21.770,final,2024.1.5,None,2024-07-31 16h52.24.912822 +0530,
images/5n.tiff,images/10n.tiff,"(0.3, 0.2)","(-0.3, 0.2)",0,15,15,20,,,,,,,,,,,,,,,,,35.2357063999998,,,,,,,,,35.224652900000365,35.2357063999998,35.72893500000009,35.7289679000005,35.742266299999756,35.92883559999973,35.928867999999966,35.94782329999998,35.94782329999998,35.94782329999998,36.44849979999981,36.44849979999981,37.035649000000376,['m'],[1.0866021000001638],[None],,,,,,,,,,,,,,,,,,,,,,,,,,,,,,,,,,,,,,,,,,,,,,,,,,,,,,,,,,,,,,,,,,,,,,,,,,,,,,,,,,,,,,,,,,,,,,,,,938793,001,2024-07-31_16h52.21.770,final,2024.1.5,None,2024-07-31 16h52.24.912822 +0530,
images/4n.tiff,images/10n.tiff,"(0.3, 0.2)","(-0.3, 0.2)",0,16,16,17,,,,,,,,,,,,,,,,,37.04827320000004,,,,,,,,,37.03588940000009,37.04827320000004,37.54186000000027,37.54190050000034,37.55493600000045,37.74188250000043,37.74191619999965,37.76059880000048,37.76059880000048,37.76059880000048,38.26141120000011,38.26141120000011,39.00866789999964,['m'],[1.2419595999999729],[None],,,,,,,,,,,,,,,,,,,,,,,,,,,,,,,,,,,,,,,,,,,,,,,,,,,,,,,,,,,,,,,,,,,,,,,,,,,,,,,,,,,,,,,,,,,,,,,,,938793,001,2024-07-31_16h52.21.770,final,2024.1.5,None,2024-07-31 16h52.24.912822 +0530,
images/18n.tiff,images/10n.tiff,"(0.3, 0.2)","(-0.3, 0.2)",0,17,17,28,,,,,,,,,,,,,,,,,39.02090930000031,,,,,,,,,39.00923630000034,39.02090930000031,39.51451520000046,39.51454569999987,39.52750240000023,39.71459440000035,39.714627199999995,39.7330050999999,39.7330050999999,39.7330050999999,40.2341035999998,40.2341035999998,40.56853899999987,['m'],[0.830277500000193],[None],,,,,,,,,,,,,,,,,,,,,,,,,,,,,,,,,,,,,,,,,,,,,,,,,,,,,,,,,,,,,,,,,,,,,,,,,,,,,,,,,,,,,,,,,,,,,,,,,938793,001,2024-07-31_16h52.21.770,final,2024.1.5,None,2024-07-31 16h52.24.912822 +0530,
images/18n.tiff,images/18n.tiff,"(0.3, 0.2)","(-0.3, 0.2)",0,18,18,15,,,,,,,,,,,,,,,,,40.580582599999616,,,,,,,,,40.56916790000014,40.580582599999616,41.07398869999997,41.074020799999744,41.08709210000052,41.27416170000015,41.274194599999646,41.29275419999976,41.29275419999976,41.29275419999976,41.79373450000003,41.79373450000003,42.98161110000001,['z'],[1.6859235000001718],[None],,,,,,,,,,,,,,,,,,,,,,,,,,,,,,,,,,,,,,,,,,,,,,,,,,,,,,,,,,,,,,,,,,,,,,,,,,,,,,,,,,,,,,,,,,,,,,,,,938793,001,2024-07-31_16h52.21.770,final,2024.1.5,None,2024-07-31 16h52.24.912822 +0530,
images/10n.tiff,images/10n.tiff,"(0.3, 0.2)","(-0.3, 0.2)",0,19,19,24,,,,,,,,,,,,,,,,,42.99313059999986,,,,,,,,,42.982554000000164,42.99313059999986,43.48645570000008,43.486487000000125,43.49975640000048,43.686393599999974,43.6864228000004,43.70441099999971,43.70441099999971,43.70441099999971,44.206121500000336,44.206121500000336,44.75420060000033,['z'],[1.042355000000498],[None],,,,,,,,,,,,,,,,,,,,,,,,,,,,,,,,,,,,,,,,,,,,,,,,,,,,,,,,,,,,,,,,,,,,,,,,,,,,,,,,,,,,,,,,,,,,,,,,,938793,001,2024-07-31_16h52.21.770,final,2024.1.5,None,2024-07-31 16h52.24.912822 +0530,
images/4n.tiff,images/5n.tiff,"(0.3, 0.2)","(-0.3, 0.2)",0,20,20,0,,,,,,,,,,,,,,,,,44.76590980000037,,,,,,,,,44.7550226000003,44.76590980000037,45.25953320000008,45.25956599999972,45.272441199999776,45.45920620000015,45.45923630000016,45.48046919999979,45.48046919999979,45.48046919999979,45.979062200000044,45.979062200000044,46.4063643999998,['m'],[0.9228934000002482],[None],,,,,,,,,,,,,,,,,,,,,,,,,,,,,,,,,,,,,,,,,,,,,,,,,,,,,,,,,,,,,,,,,,,,,,,,,,,,,,,,,,,,,,,,,,,,,,,,,938793,001,2024-07-31_16h52.21.770,final,2024.1.5,None,2024-07-31 16h52.24.912822 +0530,
images/4n.tiff,images/4n.tiff,"(0.3, 0.2)","(-0.3, 0.2)",0,21,21,19,,,,,,,,,,,,,,,,,46.418691599999875,,,,,,,,,46.406946099999914,46.418691599999875,46.912135300000045,46.91216770000028,46.92519280000033,47.11209080000026,47.11212290000003,47.13067609999962,47.13067609999962,47.13067609999962,47.631696999999804,47.631696999999804,48.2468958999998,['z'],[1.1119908000000578],[None],,,,,,,,,,,,,,,,,,,,,,,,,,,,,,,,,,,,,,,,,,,,,,,,,,,,,,,,,,,,,,,,,,,,,,,,,,,,,,,,,,,,,,,,,,,,,,,,,938793,001,2024-07-31_16h52.21.770,final,2024.1.5,None,2024-07-31 16h52.24.912822 +0530,
images/18n.tiff,images/18n.tiff,"(0.3, 0.2)","(-0.3, 0.2)",0,22,22,25,,,,,,,,,,,,,,,,,48.25824190000003,,,,,,,,,48.24778770000012,48.25824190000003,48.75165310000011,48.751685799999905,48.764559199999894,48.95140520000041,48.95143499999995,48.96940040000027,48.96940040000027,48.96940040000027,49.471141300000454,49.471141300000454,51.11128000000008,['z'],[2.1294403000001694],[None],,,,,,,,,,,,,,,,,,,,,,,,,,,,,,,,,,,,,,,,,,,,,,,,,,,,,,,,,,,,,,,,,,,,,,,,,,,,,,,,,,,,,,,,,,,,,,,,,938793,001,2024-07-31_16h52.21.770,final,2024.1.5,None,2024-07-31 16h52.24.912822 +0530,
images/10n.tiff,images/10n.tiff,"(0.3, 0.2)","(-0.3, 0.2)",0,23,23,11,,,,,,,,,,,,,,,,,51.12369529999978,,,,,,,,,51.11183299999993,51.12369529999978,51.617217099999834,51.61724800000047,51.6303184999997,51.81709769999998,51.817125900000065,51.83473049999975,51.83473049999975,51.83473049999975,52.33696190000046,52.33696190000046,52.75055870000051,['m'],[0.9039855000000898],[None],,,,,,,,,,,,,,,,,,,,,,,,,,,,,,,,,,,,,,,,,,,,,,,,,,,,,,,,,,,,,,,,,,,,,,,,,,,,,,,,,,,,,,,,,,,,,,,,,938793,001,2024-07-31_16h52.21.770,final,2024.1.5,None,2024-07-31 16h52.24.912822 +0530,
images/10n.tiff,images/4n.tiff,"(0.3, 0.2)","(-0.3, 0.2)",0,24,24,8,,,,,,,,,,,,,,,,,52.76336730000003,,,,,,,,,52.75104999999985,52.76336730000003,53.25661459999992,53.25664500000039,53.26983149999978,53.45659960000012,53.45663049999985,53.477221799999825,53.477221799999825,53.477221799999825,53.976263200000176,53.976263200000176,54.923339699999815,['m'],[1.437689199999113],[None],,,,,,,,,,,,,,,,,,,,,,,,,,,,,,,,,,,,,,,,,,,,,,,,,,,,,,,,,,,,,,,,,,,,,,,,,,,,,,,,,,,,,,,,,,,,,,,,,938793,001,2024-07-31_16h52.21.770,final,2024.1.5,None,2024-07-31 16h52.24.912822 +0530,
images/10n.tiff,images/18n.tiff,"(0.3, 0.2)","(-0.3, 0.2)",0,25,25,10,,,,,,,,,,,,,,,,,54.935855300000185,,,,,,,,,54.923913300000095,54.935855300000185,55.42935169999964,55.42938250000043,55.44248070000049,55.62928639999973,55.629317200000514,55.647666599999866,55.647666599999866,55.647666599999866,56.14889779999976,56.14889779999976,56.856541500000276,['m'],[1.2034370999999737],[None],,,,,,,,,,,,,,,,,,,,,,,,,,,,,,,,,,,,,,,,,,,,,,,,,,,,,,,,,,,,,,,,,,,,,,,,,,,,,,,,,,,,,,,,,,,,,,,,,938793,001,2024-07-31_16h52.21.770,final,2024.1.5,None,2024-07-31 16h52.24.912822 +0530,
images/4n.tiff,images/18n.tiff,"(0.3, 0.2)","(-0.3, 0.2)",0,26,26,2,,,,,,,,,,,,,,,,,56.868787800000064,,,,,,,,,56.85726599999998,56.868787800000064,57.36198679999961,57.36201919999985,57.375161500000104,57.56193989999974,57.56200020000051,57.58038940000006,57.58038940000006,57.58038940000006,58.081589899999926,58.081589899999926,59.89607200000046,['m'],[2.3110249999999724],[None],,,,,,,,,,,,,,,,,,,,,,,,,,,,,,,,,,,,,,,,,,,,,,,,,,,,,,,,,,,,,,,,,,,,,,,,,,,,,,,,,,,,,,,,,,,,,,,,,938793,001,2024-07-31_16h52.21.770,final,2024.1.5,None,2024-07-31 16h52.24.912822 +0530,
images/5n.tiff,images/18n.tiff,"(0.3, 0.2)","(-0.3, 0.2)",0,27,27,21,,,,,,,,,,,,,,,,,59.90775810000014,,,,,,,,,59.89705119999962,59.90775810000014,60.400874699999804,60.40094339999996,60.41413209999973,60.60077890000048,60.60080840000046,60.62013550000029,60.62013550000029,60.62013550000029,61.12073200000032,61.12073200000032,62.00197620000017,['m'],[1.3750882000003912],[None],,,,,,,,,,,,,,,,,,,,,,,,,,,,,,,,,,,,,,,,,,,,,,,,,,,,,,,,,,,,,,,,,,,,,,,,,,,,,,,,,,,,,,,,,,,,,,,,,938793,001,2024-07-31_16h52.21.770,final,2024.1.5,None,2024-07-31 16h52.24.912822 +0530,
images/18n.tiff,images/5n.tiff,"(0.3, 0.2)","(-0.3, 0.2)",0,28,28,13,,,,,,,,,,,,,,,,,62.01360039999963,,,,,,,,,62.00302439999996,62.01360039999963,62.507055400000354,62.507088500000464,62.5200504000004,62.70711850000043,62.70715410000048,62.72926960000041,62.72926960000041,62.72926960000041,63.2265368999997,63.2265368999997,63.74738940000043,['m'],[1.0171912999994674],[None],,,,,,,,,,,,,,,,,,,,,,,,,,,,,,,,,,,,,,,,,,,,,,,,,,,,,,,,,,,,,,,,,,,,,,,,,,,,,,,,,,,,,,,,,,,,,,,,,938793,001,2024-07-31_16h52.21.770,final,2024.1.5,None,2024-07-31 16h52.24.912822 +0530,
images/10n.tiff,images/18n.tiff,"(0.3, 0.2)","(-0.3, 0.2)",0,29,29,23,,,,,,,,,,,,,,,,,63.759541100000206,,,,,,,,,63.747801399999844,63.759541100000206,64.25308109999969,64.2531140000001,64.26626390000001,64.45315870000013,64.45319279999967,64.4726198999997,64.4726198999997,64.4726198999997,64.97263420000036,64.97263420000036,65.33294440000009,['m'],[0.8501126000001022],[None],,,,,,,,,,,,,,,,,,,,,,,,,,,,,,,,,,,,,,,,,,,,,,,,,,,,,,,,,,,,,,,,,,,,,,,,,,,,,,,,,,,,,,,,,,,,,,,,,938793,001,2024-07-31_16h52.21.770,final,2024.1.5,None,2024-07-31 16h52.24.912822 +0530,
,,,,,,,,,,,,,,,,,,,,,,,,,,,,,,,,,,,,,,,,,,,,,,,,,65.3333504000002,65.34590409999964,65.34590409999964,73.67807410000023,space,8.329186400000253,None,,,,,,,,,,,,,,,,,,,,,,,,,,,,,,,,,,,,,,,,,,,,,,,,,,,,,,,,,,,,,,,,,,,,,,,,,,,,,,,,,,,,,,,,,,938793,001,2024-07-31_16h52.21.770,final,2024.1.5,None,2024-07-31 16h52.24.912822 +0530,
images/10n.tiff,images/5n.tiff,,,,,,,0,0,0,3,,,,,,,,,,,,,73.6934597999998,,,,,,,,,,,,,,,,,,,,,,,,,,,,,,,,73.69162330000017,73.6934597999998,74.18315040000016,74.18318499999987,74.19610579999971,74.38305109999965,74.3830839000002,74.40215960000023,74.40215960000023,74.40215960000023,74.90268240000023,74.90268240000023,76.3426298000004,['m'],[1.9284277999995538],[None],,,,,,,,,,,,,,,,,,,,,,,,,,,,,,,,,,,,,,,,,,,,,,,,,,,,,,,,,,,,,,,,,,,,,,,,,,938793,001,2024-07-31_16h52.21.770,final,2024.1.5,None,2024-07-31 16h52.24.912822 +0530,
images/5n.tiff,images/5n.tiff,,,,,,,0,1,1,4,,,,,,,,,,,,,76.35528580000027,,,,,,,,,,,,,,,,,,,,,,,,,,,,,,,,76.34327219999977,76.35528580000027,76.84888860000046,76.84892099999979,76.86197960000027,77.04890410000007,77.04893879999963,77.07052250000015,77.07052250000015,77.07052250000015,77.56847410000046,77.56847410000046,84.12780190000012,['m'],[7.052697299999636],[None],,,,,,,,,,,,,,,,,,,,,,,,,,,,,,,,,,,,,,,,,,,,,,,,,,,,,,,,,,,,,,,,,,,,,,,,,,938793,001,2024-07-31_16h52.21.770,final,2024.1.5,None,2024-07-31 16h52.24.912822 +0530,
images/5n.tiff,images/10n.tiff,,,,,,,0,2,2,1,,,,,,,,,,,,,84.13973510000051,,,,,,,,,,,,,,,,,,,,,,,,,,,,,,,,84.12869779999983,84.13973510000051,84.63299009999992,84.63302440000007,84.6462260999997,84.8327317000003,84.83276290000049,84.85237919999963,84.85237919999963,84.85237919999963,85.35239929999989,85.35239929999989,86.07317309999962,['m'],[1.2142162999998618],[None],,,,,,,,,,,,,,,,,,,,,,,,,,,,,,,,,,,,,,,,,,,,,,,,,,,,,,,,,,,,,,,,,,,,,,,,,,938793,001,2024-07-31_16h52.21.770,final,2024.1.5,None,2024-07-31 16h52.24.912822 +0530,
images/10n.tiff,images/10n.tiff,,,,,,,0,3,3,5,,,,,,,,,,,,,86.08560940000007,,,,,,,,,,,,,,,,,,,,,,,,,,,,,,,,86.07389469999998,86.08560940000007,86.5789364000002,86.5789692999997,86.59207390000029,86.77890050000042,86.77893210000002,86.79769169999963,86.79769169999963,86.79769169999963,87.29865849999987,87.29865849999987,88.12618209999982,['z'],[1.3176609000001918],[None],,,,,,,,,,,,,,,,,,,,,,,,,,,,,,,,,,,,,,,,,,,,,,,,,,,,,,,,,,,,,,,,,,,,,,,,,,938793,001,2024-07-31_16h52.21.770,final,2024.1.5,None,2024-07-31 16h52.24.912822 +0530,
images/10n.tiff,images/10n.tiff,,,,,,,0,4,4,2,,,,,,,,,,,,,88.13842690000001,,,,,,,,,,,,,,,,,,,,,,,,,,,,,,,,88.12722940000003,88.13842690000001,88.63147740000022,88.63150930000029,88.64477100000022,88.83144830000037,88.83147929999996,88.84984720000011,88.84984720000011,88.84984720000011,89.35107380000045,89.35107380000045,91.27266580000014,['z'],[2.417834099999709],[None],,,,,,,,,,,,,,,,,,,,,,,,,,,,,,,,,,,,,,,,,,,,,,,,,,,,,,,,,,,,,,,,,,,,,,,,,,938793,001,2024-07-31_16h52.21.770,final,2024.1.5,None,2024-07-31 16h52.24.912822 +0530,
images/5n.tiff,images/5n.tiff,,,,,,,0,5,5,0,,,,,,,,,,,,,91.28391280000051,,,,,,,,,,,,,,,,,,,,,,,,,,,,,,,,91.27373939999961,91.28391280000051,91.77726660000008,91.77729999999974,91.79031360000045,91.9771780000001,91.97721040000033,91.99750899999981,91.99750899999981,91.99750899999981,92.49682099999973,92.49682099999973,92.92380479999974,['z'],[0.9170252000003529],[None],,,,,,,,,,,,,,,,,,,,,,,,,,,,,,,,,,,,,,,,,,,,,,,,,,,,,,,,,,,,,,,,,,,,,,,,,,938793,001,2024-07-31_16h52.21.770,final,2024.1.5,None,2024-07-31 16h52.24.912822 +0530,
images/5n.tiff,images/5n.tiff,,,,,,,1,0,6,4,,,,,,,,,,,,,92.93660470000032,,,,,,,,,,,,,,,,,,,,,,,,,,,,,,,,92.92420240000047,92.93660470000032,93.43003490000046,93.43007860000034,93.44327390000035,93.62987369999973,93.62990509999963,93.64813549999963,93.64813549999963,93.64813549999963,94.14965589999974,94.14965589999974,94.53736540000045,['z'],[0.8827851000005467],[None],,,,,,,,,,,,,,,,,,,,,,,,,,,,,,,,,,,,,,,,,,,,,,,,,,,,,,,,,,,,,,,,,,,,,,,,,,938793,001,2024-07-31_16h52.21.770,final,2024.1.5,None,2024-07-31 16h52.24.912822 +0530,
images/5n.tiff,images/5n.tiff,,,,,,,1,1,7,0,,,,,,,,,,,,,94.54942029999984,,,,,,,,,,,,,,,,,,,,,,,,,,,,,,,,94.5383168999997,94.54942029999984,95.04284449999977,95.0428778000005,95.05600810000033,95.24285650000002,95.24289239999962,95.26281680000011,95.26281680000011,95.26281680000011,95.76249910000024,95.76249910000024,96.11109120000037,['z'],[0.8441034000006766],[None],,,,,,,,,,,,,,,,,,,,,,,,,,,,,,,,,,,,,,,,,,,,,,,,,,,,,,,,,,,,,,,,,,,,,,,,,,938793,001,2024-07-31_16h52.21.770,final,2024.1.5,None,2024-07-31 16h52.24.912822 +0530,
images/10n.tiff,images/5n.tiff,,,,,,,1,2,8,3,,,,,,,,,,,,,96.12228400000004,,,,,,,,,,,,,,,,,,,,,,,,,,,,,,,,96.11224820000007,96.12228400000004,96.61568439999974,96.61571989999993,96.62867410000035,96.81558750000022,96.81562190000022,96.83819969999968,96.83819969999968,96.83819969999968,97.33537979999983,97.33537979999983,97.83004820000042,['m'],[0.9891306999998051],[None],,,,,,,,,,,,,,,,,,,,,,,,,,,,,,,,,,,,,,,,,,,,,,,,,,,,,,,,,,,,,,,,,,,,,,,,,,938793,001,2024-07-31_16h52.21.770,final,2024.1.5,None,2024-07-31 16h52.24.912822 +0530,
images/5n.tiff,images/10n.tiff,,,,,,,1,3,9,1,,,,,,,,,,,,,97.84159030000046,,,,,,,,,,,,,,,,,,,,,,,,,,,,,,,,97.83102810000037,97.84159030000046,98.33536100000038,98.33539829999972,98.34817339999972,98.53505140000016,98.53508390000025,98.55336460000035,98.55336460000035,98.55336460000035,99.05466969999998,99.05466969999998,99.4683670000004,['m'],[0.9053675999994084],[None],,,,,,,,,,,,,,,,,,,,,,,,,,,,,,,,,,,,,,,,,,,,,,,,,,,,,,,,,,,,,,,,,,,,,,,,,,938793,001,2024-07-31_16h52.21.770,final,2024.1.5,None,2024-07-31 16h52.24.912822 +0530,
images/10n.tiff,images/10n.tiff,,,,,,,1,4,10,2,,,,,,,,,,,,,99.48117199999979,,,,,,,,,,,,,,,,,,,,,,,,,,,,,,,,99.46888579999995,99.48117199999979,99.97465019999981,99.97468360000039,99.98758220000036,100.17436280000038,100.17439060000015,100.1938796000004,100.1938796000004,100.1938796000004,100.6941741999999,100.6941741999999,101.16219290000026,['z'],[0.9616087000003972],[None],,,,,,,,,,,,,,,,,,,,,,,,,,,,,,,,,,,,,,,,,,,,,,,,,,,,,,,,,,,,,,,,,,,,,,,,,,938793,001,2024-07-31_16h52.21.770,final,2024.1.5,None,2024-07-31 16h52.24.912822 +0530,
images/10n.tiff,images/10n.tiff,,,,,,,1,5,11,5,,,,,,,,,,,,,101.1740308999997,,,,,,,,,,,,,,,,,,,,,,,,,,,,,,,,101.16307659999984,101.1740308999997,101.66731379999965,101.66734710000037,101.68047709999973,101.86720239999977,101.86723340000026,101.89125030000014,101.89125030000014,101.89125030000014,102.38678710000022,102.38678710000022,102.90768279999975,['z'],[1.0079894999998942],[None],,,,,,,,,,,,,,,,,,,,,,,,,,,,,,,,,,,,,,,,,,,,,,,,,,,,,,,,,,,,,,,,,,,,,,,,,,938793,001,2024-07-31_16h52.21.770,final,2024.1.5,None,2024-07-31 16h52.24.912822 +0530,
images/5n.tiff,images/5n.tiff,,,,,,,2,0,12,4,,,,,,,,,,,,,102.92001869999967,,,,,,,,,,,,,,,,,,,,,,,,,,,,,,,,102.9084315,102.92001869999967,103.41316639999968,103.41318169999977,103.4263861999998,103.61339010000029,103.61342100000002,103.63193000000047,103.63193000000047,103.63193000000047,104.13308260000031,104.13308260000031,104.88056669999969,['z'],[1.2430747999997038],[None],,,,,,,,,,,,,,,,,,,,,,,,,,,,,,,,,,,,,,,,,,,,,,,,,,,,,,,,,,,,,,,,,,,,,,,,,,938793,001,2024-07-31_16h52.21.770,final,2024.1.5,None,2024-07-31 16h52.24.912822 +0530,
images/5n.tiff,images/10n.tiff,,,,,,,2,1,13,1,,,,,,,,,,,,,104.8925790000003,,,,,,,,,,,,,,,,,,,,,,,,,,,,,,,,104.88128680000045,104.8925790000003,105.38594250000006,105.38597449999997,105.39926749999995,105.58592669999962,105.5859588000003,105.6053477000005,105.6053477000005,105.6053477000005,106.10564720000002,106.10564720000002,106.44033760000002,['m'],[0.8300749999998516],[None],,,,,,,,,,,,,,,,,,,,,,,,,,,,,,,,,,,,,,,,,,,,,,,,,,,,,,,,,,,,,,,,,,,,,,,,,,938793,001,2024-07-31_16h52.21.770,final,2024.1.5,None,2024-07-31 16h52.24.912822 +0530,
images/10n.tiff,images/10n.tiff,,,,,,,2,2,14,2,,,,,,,,,,,,,106.45217140000022,,,,,,,,,,,,,,,,,,,,,,,,,,,,,,,,106.4411842999998,106.45217140000022,106.9454366,106.94546929999979,106.95874449999974,107.14538600000014,107.14542009999968,107.16311789999963,107.16311789999963,107.16311789999963,107.66504429999986,107.66504429999986,108.17372350000005,['z'],[1.0078899999998612],[None],,,,,,,,,,,,,,,,,,,,,,,,,,,,,,,,,,,,,,,,,,,,,,,,,,,,,,,,,,,,,,,,,,,,,,,,,,938793,001,2024-07-31_16h52.21.770,final,2024.1.5,None,2024-07-31 16h52.24.912822 +0530,
images/10n.tiff,images/10n.tiff,,,,,,,2,3,15,5,,,,,,,,,,,,,108.18484259999968,,,,,,,,,,,,,,,,,,,,,,,,,,,,,,,,108.17473700000028,108.18484259999968,108.6783249,108.67835699999978,108.69153449999976,108.8783069000001,108.87833779999983,108.89790879999964,108.89790879999964,108.89790879999964,109.39807819999987,109.39807819999987,109.91808680000031,['z'],[1.0094246999997267],[None],,,,,,,,,,,,,,,,,,,,,,,,,,,,,,,,,,,,,,,,,,,,,,,,,,,,,,,,,,,,,,,,,,,,,,,,,,938793,001,2024-07-31_16h52.21.770,final,2024.1.5,None,2024-07-31 16h52.24.912822 +0530,
images/5n.tiff,images/5n.tiff,,,,,,,2,4,16,0,,,,,,,,,,,,,109.93104180000046,,,,,,,,,,,,,,,,,,,,,,,,,,,,,,,,109.91845620000004,109.93104180000046,110.4243720000004,110.42440499999975,110.43776479999997,110.62429400000019,110.62432530000024,110.64285800000016,110.64285800000016,110.64285800000016,111.14391869999963,111.14391869999963,112.05268270000033,['z'],[1.4079185000000507],[None],,,,,,,,,,,,,,,,,,,,,,,,,,,,,,,,,,,,,,,,,,,,,,,,,,,,,,,,,,,,,,,,,,,,,,,,,,938793,001,2024-07-31_16h52.21.770,final,2024.1.5,None,2024-07-31 16h52.24.912822 +0530,
images/10n.tiff,images/5n.tiff,,,,,,,2,5,17,3,,,,,,,,,,,,,112.063623,,,,,,,,,,,,,,,,,,,,,,,,,,,,,,,,112.05367000000024,112.063623,112.55709350000052,112.5571288000001,112.57032200000049,112.75700849999976,112.75704000000042,112.77532489999976,112.77532489999976,112.77532489999976,113.27672319999965,113.27672319999965,113.70452440000008,['m'],[0.9157353000000512],[None],,,,,,,,,,,,,,,,,,,,,,,,,,,,,,,,,,,,,,,,,,,,,,,,,,,,,,,,,,,,,,,,,,,,,,,,,,938793,001,2024-07-31_16h52.21.770,final,2024.1.5,None,2024-07-31 16h52.24.912822 +0530,
images/5n.tiff,images/10n.tiff,,,,,,,3,0,18,1,,,,,,,,,,,,,113.71656710000025,,,,,,,,,,,,,,,,,,,,,,,,,,,,,,,,113.70568550000007,113.71656710000025,114.20983460000025,114.20986660000017,114.22284010000021,114.40977070000008,114.40980260000015,114.42780459999994,114.42780459999994,114.42780459999994,114.92954250000003,114.92954250000003,116.3178181000003,['m'],[1.8873309999999037],[None],,,,,,,,,,,,,,,,,,,,,,,,,,,,,,,,,,,,,,,,,,,,,,,,,,,,,,,,,,,,,,,,,,,,,,,,,,938793,001,2024-07-31_16h52.21.770,final,2024.1.5,None,2024-07-31 16h52.24.912822 +0530,
images/10n.tiff,images/10n.tiff,,,,,,,3,1,19,2,,,,,,,,,,,,,116.32882870000049,,,,,,,,,,,,,,,,,,,,,,,,,,,,,,,,116.3188267000005,116.32882870000049,116.82218209999974,116.82221560000016,116.83549969999967,117.02215720000004,117.02218879999964,117.04184030000033,117.04184030000033,117.04184030000033,117.54175680000026,117.54175680000026,117.99736610000036,['z'],[0.9535055999995166],[None],,,,,,,,,,,,,,,,,,,,,,,,,,,,,,,,,,,,,,,,,,,,,,,,,,,,,,,,,,,,,,,,,,,,,,,,,,938793,001,2024-07-31_16h52.21.770,final,2024.1.5,None,2024-07-31 16h52.24.912822 +0530,
images/5n.tiff,images/5n.tiff,,,,,,,3,2,20,0,,,,,,,,,,,,,118.00829129999966,,,,,,,,,,,,,,,,,,,,,,,,,,,,,,,,117.99842330000047,118.00829129999966,118.50185729999976,118.50189179999961,118.51508639999975,118.70165540000016,118.7016878000004,118.71985750000022,118.71985750000022,118.71985750000022,119.2212924000005,119.2212924000005,119.83683399999973,['z'],[1.1150975000000471],[None],,,,,,,,,,,,,,,,,,,,,,,,,,,,,,,,,,,,,,,,,,,,,,,,,,,,,,,,,,,,,,,,,,,,,,,,,,938793,001,2024-07-31_16h52.21.770,final,2024.1.5,None,2024-07-31 16h52.24.912822 +0530,
images/5n.tiff,images/5n.tiff,,,,,,,3,3,21,4,,,,,,,,,,,,,119.84778209999968,,,,,,,,,,,,,,,,,,,,,,,,,,,,,,,,119.83783920000042,119.84778209999968,120.34107190000032,120.34114320000026,120.35434499999974,120.54118079999989,120.54121440000017,120.5600615000003,120.5600615000003,120.5600615000003,121.06065750000016,121.06065750000016,121.48834830000033,['z'],[0.9147530000000188],[None],,,,,,,,,,,,,,,,,,,,,,,,,,,,,,,,,,,,,,,,,,,,,,,,,,,,,,,,,,,,,,,,,,,,,,,,,,938793,001,2024-07-31_16h52.21.770,final,2024.1.5,None,2024-07-31 16h52.24.912822 +0530,
images/10n.tiff,images/5n.tiff,,,,,,,3,4,22,3,,,,,,,,,,,,,121.50053469999966,,,,,,,,,,,,,,,,,,,,,,,,,,,,,,,,121.48936150000009,121.50053469999966,121.99412229999962,121.99415580000004,122.00722529999985,122.1941195999998,122.19415149999986,122.2128904000001,122.2128904000001,122.2128904000001,122.71354410000004,122.71354410000004,123.0342668000003,['m'],[0.8138547000007748],[None],,,,,,,,,,,,,,,,,,,,,,,,,,,,,,,,,,,,,,,,,,,,,,,,,,,,,,,,,,,,,,,,,,,,,,,,,,938793,001,2024-07-31_16h52.21.770,final,2024.1.5,None,2024-07-31 16h52.24.912822 +0530,
images/10n.tiff,images/10n.tiff,,,,,,,3,5,23,5,,,,,,,,,,,,,123.04672870000013,,,,,,,,,,,,,,,,,,,,,,,,,,,,,,,,123.03485580000051,123.04672870000013,123.54022129999976,123.54025710000042,123.55351799999971,123.74008800000047,123.74012080000011,123.76256850000027,123.76256850000027,123.76256850000027,124.25965150000047,124.25965150000047,124.7021606999997,['z'],[0.9373016999998072],[None],,,,,,,,,,,,,,,,,,,,,,,,,,,,,,,,,,,,,,,,,,,,,,,,,,,,,,,,,,,,,,,,,,,,,,,,,,938793,001,2024-07-31_16h52.21.770,final,2024.1.5,None,2024-07-31 16h52.24.912822 +0530,
images/5n.tiff,images/10n.tiff,,,,,,,4,0,24,1,,,,,,,,,,,,,124.71281139999974,,,,,,,,,,,,,,,,,,,,,,,,,,,,,,,,124.70329899999979,124.71281139999974,125.20644240000001,125.20647499999995,125.21928750000006,125.4062358000001,125.4062657000004,125.4253663999998,125.4253663999998,125.4253663999998,125.9259017000004,125.9259017000004,126.73981240000012,['m'],[1.3052878000007695],[None],,,,,,,,,,,,,,,,,,,,,,,,,,,,,,,,,,,,,,,,,,,,,,,,,,,,,,,,,,,,,,,,,,,,,,,,,,938793,001,2024-07-31_16h52.21.770,final,2024.1.5,None,2024-07-31 16h52.24.912822 +0530,
images/5n.tiff,images/5n.tiff,,,,,,,4,1,25,4,,,,,,,,,,,,,126.75219879999986,,,,,,,,,,,,,,,,,,,,,,,,,,,,,,,,126.74031209999976,126.75219879999986,127.24558479999996,127.24561939999967,127.25862789999974,127.44572189999963,127.44576479999978,127.4675256999999,127.4675256999999,127.4675256999999,127.9652345000004,127.9652345000004,128.40701030000037,['z'],[0.9354612999995879],[None],,,,,,,,,,,,,,,,,,,,,,,,,,,,,,,,,,,,,,,,,,,,,,,,,,,,,,,,,,,,,,,,,,,,,,,,,,938793,001,2024-07-31_16h52.21.770,final,2024.1.5,None,2024-07-31 16h52.24.912822 +0530,
images/5n.tiff,images/5n.tiff,,,,,,,4,2,26,0,,,,,,,,,,,,,128.41839429999982,,,,,,,,,,,,,,,,,,,,,,,,,,,,,,,,128.4080813999999,128.41839429999982,128.91172129999995,128.91175490000023,128.9248620999997,129.11177039999984,129.11180419999982,129.1295925000004,129.1295925000004,129.1295925000004,129.63140870000007,129.63140870000007,130.00656189999972,['z'],[0.8733887999997023],[None],,,,,,,,,,,,,,,,,,,,,,,,,,,,,,,,,,,,,,,,,,,,,,,,,,,,,,,,,,,,,,,,,,,,,,,,,,938793,001,2024-07-31_16h52.21.770,final,2024.1.5,None,2024-07-31 16h52.24.912822 +0530,
images/10n.tiff,images/10n.tiff,,,,,,,4,3,27,2,,,,,,,,,,,,,130.01771459999964,,,,,,,,,,,,,,,,,,,,,,,,,,,,,,,,130.00797340000008,130.01771459999964,130.51137410000047,130.51142030000028,130.52438549999988,130.71110419999968,130.71113630000036,130.73266719999992,130.73266719999992,130.73266719999992,131.23082429999977,131.23082429999977,131.57873980000022,['z'],[0.8390220000001136],[None],,,,,,,,,,,,,,,,,,,,,,,,,,,,,,,,,,,,,,,,,,,,,,,,,,,,,,,,,,,,,,,,,,,,,,,,,,938793,001,2024-07-31_16h52.21.770,final,2024.1.5,None,2024-07-31 16h52.24.912822 +0530,
images/10n.tiff,images/10n.tiff,,,,,,,4,4,28,5,,,,,,,,,,,,,131.5905898000001,,,,,,,,,,,,,,,,,,,,,,,,,,,,,,,,131.57973240000047,131.5905898000001,132.08393869999963,132.0839692999998,132.09703790000003,132.28404750000027,132.28407890000017,132.30304710000019,132.30304710000019,132.30304710000019,132.80363690000013,132.80363690000013,132.9521110000005,['z'],[0.6440219999994952],[None],,,,,,,,,,,,,,,,,,,,,,,,,,,,,,,,,,,,,,,,,,,,,,,,,,,,,,,,,,,,,,,,,,,,,,,,,,938793,001,2024-07-31_16h52.21.770,final,2024.1.5,None,2024-07-31 16h52.24.912822 +0530,
images/10n.tiff,images/5n.tiff,,,,,,,4,5,29,3,,,,,,,,,,,,,132.9634689000004,,,,,,,,,,,,,,,,,,,,,,,,,,,,,,,,132.95316550000007,132.9634689000004,133.4568135999998,133.45685099999992,133.47000690000004,133.65676950000034,133.65680350000002,133.67525850000038,133.67525850000038,133.67525850000038,134.17634280000038,134.17634280000038,134.65721360000043,['m'],[0.9759180000000924],[None],,,,,,,,,,,,,,,,,,,,,,,,,,,,,,,,,,,,,,,,,,,,,,,,,,,,,,,,,,,,,,,,,,,,,,,,,,938793,001,2024-07-31_16h52.21.770,final,2024.1.5,None,2024-07-31 16h52.24.912822 +0530,
images/10n.tiff,images/5n.tiff,,,,,,,5,0,30,3,,,,,,,,,,,,,134.66966779999984,,,,,,,,,,,,,,,,,,,,,,,,,,,,,,,,134.65783050000027,134.66966779999984,135.16296760000023,135.1630008000002,135.1760948000001,135.36305700000048,135.36309020000044,135.38329390000035,135.38329390000035,135.38329390000035,135.88257150000027,135.88257150000027,136.47087379999994,['m'],[1.0836344000008467],[None],,,,,,,,,,,,,,,,,,,,,,,,,,,,,,,,,,,,,,,,,,,,,,,,,,,,,,,,,,,,,,,,,,,,,,,,,,938793,001,2024-07-31_16h52.21.770,final,2024.1.5,None,2024-07-31 16h52.24.912822 +0530,
images/5n.tiff,images/10n.tiff,,,,,,,5,1,31,1,,,,,,,,,,,,,136.48233789999995,,,,,,,,,,,,,,,,,,,,,,,,,,,,,,,,136.47194089999994,136.48233789999995,136.97579740000037,136.97583529999974,136.98893880000014,137.17572149999978,137.17575829999987,137.19669720000002,137.19669720000002,137.19669720000002,137.6952495000005,137.6952495000005,138.1353033000005,['m'],[0.9263486999998349],[None],,,,,,,,,,,,,,,,,,,,,,,,,,,,,,,,,,,,,,,,,,,,,,,,,,,,,,,,,,,,,,,,,,,,,,,,,,938793,001,2024-07-31_16h52.21.770,final,2024.1.5,None,2024-07-31 16h52.24.912822 +0530,
images/5n.tiff,images/5n.tiff,,,,,,,5,2,32,4,,,,,,,,,,,,,138.1484416000003,,,,,,,,,,,,,,,,,,,,,,,,,,,,,,,,138.13571740000043,138.1484416000003,138.64184469999964,138.6418773000005,138.65490450000016,138.8418012000002,138.8418489000005,138.86064110000007,138.86064110000007,138.86064110000007,139.36140460000024,139.36140460000024,139.69625220000034,['z'],[0.830821399999877],[None],,,,,,,,,,,,,,,,,,,,,,,,,,,,,,,,,,,,,,,,,,,,,,,,,,,,,,,,,,,,,,,,,,,,,,,,,,938793,001,2024-07-31_16h52.21.770,final,2024.1.5,None,2024-07-31 16h52.24.912822 +0530,
images/10n.tiff,images/10n.tiff,,,,,,,5,3,33,5,,,,,,,,,,,,,139.70802000000003,,,,,,,,,,,,,,,,,,,,,,,,,,,,,,,,139.69726869999977,139.70802000000003,140.20149390000006,140.20153320000009,140.21453159999965,140.4013071999998,140.4013371000001,140.42067469999984,140.42067469999984,140.42067469999984,140.92097509999985,140.92097509999985,141.3488100000004,['z'],[0.9186147999998866],[None],,,,,,,,,,,,,,,,,,,,,,,,,,,,,,,,,,,,,,,,,,,,,,,,,,,,,,,,,,,,,,,,,,,,,,,,,,938793,001,2024-07-31_16h52.21.770,final,2024.1.5,None,2024-07-31 16h52.24.912822 +0530,
images/10n.tiff,images/10n.tiff,,,,,,,5,4,34,2,,,,,,,,,,,,,141.36081540000032,,,,,,,,,,,,,,,,,,,,,,,,,,,,,,,,141.3496995000005,141.36081540000032,141.85415379999995,141.8541911000002,141.86735820000013,142.05416700000023,142.05422759999965,142.07632329999979,142.07632329999979,142.07632329999979,142.57373439999992,142.57373439999992,142.6013807999998,['z'],[0.5182316000000355],[None],,,,,,,,,,,,,,,,,,,,,,,,,,,,,,,,,,,,,,,,,,,,,,,,,,,,,,,,,,,,,,,,,,,,,,,,,,938793,001,2024-07-31_16h52.21.770,final,2024.1.5,None,2024-07-31 16h52.24.912822 +0530,
images/5n.tiff,images/5n.tiff,,,,,,,5,5,35,0,,,,,,,,,,,,,142.61353190000045,,,,,,,,,,,,,,,,,,,,,,,,,,,,,,,,142.60223700000006,142.61353190000045,143.1070049,143.10703829999966,143.12027409999973,143.30701560000034,143.30704760000026,143.32631709999987,143.32631709999987,143.32631709999987,143.82668230000036,143.82668230000036,144.16121199999998,['z'],[0.8285524000002624],[None],,,,,,,,,,,,,,,,,,,,,,,,,,,,,,,,,,,,,,,,,,,,,,,,,,,,,,,,,,,,,,,,,,,,,,,,,,938793,001,2024-07-31_16h52.21.770,final,2024.1.5,None,2024-07-31 16h52.24.912822 +0530,
images/10n.tiff,images/10n.tiff,,,,,,,6,0,36,5,,,,,,,,,,,,,144.1730266000004,,,,,,,,,,,,,,,,,,,,,,,,,,,,,,,,144.16220599999997,144.1730266000004,144.66651430000002,144.66654610000023,144.67973580000034,144.8665431999998,144.8665745999997,144.88640000000032,144.88640000000032,144.88640000000032,145.3861523000005,145.3861523000005,145.97493740000027,['z'],[1.0847125999998752],[None],,,,,,,,,,,,,,,,,,,,,,,,,,,,,,,,,,,,,,,,,,,,,,,,,,,,,,,,,,,,,,,,,,,,,,,,,,938793,001,2024-07-31_16h52.21.770,final,2024.1.5,None,2024-07-31 16h52.24.912822 +0530,
images/5n.tiff,images/10n.tiff,,,,,,,6,1,37,1,,,,,,,,,,,,,145.98573380000016,,,,,,,,,,,,,,,,,,,,,,,,,,,,,,,,145.97606290000022,145.98573380000016,146.47932519999995,146.4793595000001,146.49240310000005,146.6791162999998,146.67914389999987,146.69968040000003,146.69968040000003,146.69968040000003,147.1988351,147.1988351,147.63999969999986,['m'],[0.9350135999993654],[None],,,,,,,,,,,,,,,,,,,,,,,,,,,,,,,,,,,,,,,,,,,,,,,,,,,,,,,,,,,,,,,,,,,,,,,,,,938793,001,2024-07-31_16h52.21.770,final,2024.1.5,None,2024-07-31 16h52.24.912822 +0530,
images/10n.tiff,images/10n.tiff,,,,,,,6,2,38,2,,,,,,,,,,,,,147.65194900000006,,,,,,,,,,,,,,,,,,,,,,,,,,,,,,,,147.6408424000001,147.65194900000006,148.14540450000004,148.14543680000043,148.15862279999965,148.3454859000003,148.34551920000013,148.36496179999995,148.36496179999995,148.36496179999995,148.86510660000022,148.86510660000022,149.87826500000028,['z'],[1.5100910999999542],[None],,,,,,,,,,,,,,,,,,,,,,,,,,,,,,,,,,,,,,,,,,,,,,,,,,,,,,,,,,,,,,,,,,,,,,,,,,938793,001,2024-07-31_16h52.21.770,final,2024.1.5,None,2024-07-31 16h52.24.912822 +0530,
images/10n.tiff,images/5n.tiff,,,,,,,6,3,39,3,,,,,,,,,,,,,149.89104690000022,,,,,,,,,,,,,,,,,,,,,,,,,,,,,,,,149.87853319999977,149.89104690000022,150.38468459999967,150.38471759999993,150.39783929999976,150.58454100000017,150.58457180000005,150.6046465999998,150.6046465999998,150.6046465999998,151.1043553999998,151.1043553999998,151.4254222999998,['m'],[0.8143903000000137],[None],,,,,,,,,,,,,,,,,,,,,,,,,,,,,,,,,,,,,,,,,,,,,,,,,,,,,,,,,,,,,,,,,,,,,,,,,,938793,001,2024-07-31_16h52.21.770,final,2024.1.5,None,2024-07-31 16h52.24.912822 +0530,
images/5n.tiff,images/5n.tiff,,,,,,,6,4,40,4,,,,,,,,,,,,,151.43738519999988,,,,,,,,,,,,,,,,,,,,,,,,,,,,,,,,151.42619790000026,151.43738519999988,151.93088379999972,151.93092100000013,151.94402749999972,152.13074599999982,152.13078020000012,152.15113219999967,152.15113219999967,152.15113219999967,152.6503456999999,152.6503456999999,152.85193470000013,['z'],[0.6916006000001289],[None],,,,,,,,,,,,,,,,,,,,,,,,,,,,,,,,,,,,,,,,,,,,,,,,,,,,,,,,,,,,,,,,,,,,,,,,,,938793,001,2024-07-31_16h52.21.770,final,2024.1.5,None,2024-07-31 16h52.24.912822 +0530,
images/5n.tiff,images/5n.tiff,,,,,,,6,5,41,0,,,,,,,,,,,,,152.8637544000003,,,,,,,,,,,,,,,,,,,,,,,,,,,,,,,,152.8530582000003,152.8637544000003,153.35698200000024,153.35701429999972,153.37002829999983,153.5569770000002,153.55701060000047,153.57824299999993,153.57824299999993,153.57824299999993,154.07663130000037,154.07663130000037,155.2239308999997,['z'],[1.6329949999999371],[None],,,,,,,,,,,,,,,,,,,,,,,,,,,,,,,,,,,,,,,,,,,,,,,,,,,,,,,,,,,,,,,,,,,,,,,,,,938793,001,2024-07-31_16h52.21.770,final,2024.1.5,None,2024-07-31 16h52.24.912822 +0530,
images/5n.tiff,images/10n.tiff,,,,,,,7,0,42,1,,,,,,,,,,,,,155.2362492000002,,,,,,,,,,,,,,,,,,,,,,,,,,,,,,,,155.22475659999964,155.2362492000002,155.72955999999976,155.7295939000005,155.74270929999966,155.92951470000025,155.92958699999963,155.95007189999978,155.95007189999978,155.95007189999978,156.44900159999997,156.44900159999997,156.7177397000005,['m'],[0.7648260000005394],[None],,,,,,,,,,,,,,,,,,,,,,,,,,,,,,,,,,,,,,,,,,,,,,,,,,,,,,,,,,,,,,,,,,,,,,,,,,938793,001,2024-07-31_16h52.21.770,final,2024.1.5,None,2024-07-31 16h52.24.912822 +0530,
images/5n.tiff,images/5n.tiff,,,,,,,7,1,43,0,,,,,,,,,,,,,156.7288649000002,,,,,,,,,,,,,,,,,,,,,,,,,,,,,,,,156.71884370000043,156.7288649000002,157.222444,157.22247510000034,157.23566459999984,157.42218909999974,157.42221320000044,157.4409826000001,157.4409826000001,157.4409826000001,157.94204720000016,157.94204720000016,158.38234339999963,['z'],[0.9300652000001719],[None],,,,,,,,,,,,,,,,,,,,,,,,,,,,,,,,,,,,,,,,,,,,,,,,,,,,,,,,,,,,,,,,,,,,,,,,,,938793,001,2024-07-31_16h52.21.770,final,2024.1.5,None,2024-07-31 16h52.24.912822 +0530,
images/10n.tiff,images/10n.tiff,,,,,,,7,2,44,5,,,,,,,,,,,,,158.3951648000002,,,,,,,,,,,,,,,,,,,,,,,,,,,,,,,,158.3826895000002,158.3951648000002,158.8884705999999,158.88850639999964,158.90178860000015,159.0883389999999,159.08837229999972,159.10729939999965,159.10729939999965,159.10729939999965,159.60803990000022,159.60803990000022,160.8093098999998,['z'],[1.6953223000000435],[None],,,,,,,,,,,,,,,,,,,,,,,,,,,,,,,,,,,,,,,,,,,,,,,,,,,,,,,,,,,,,,,,,,,,,,,,,,938793,001,2024-07-31_16h52.21.770,final,2024.1.5,None,2024-07-31 16h52.24.912822 +0530,
images/10n.tiff,images/10n.tiff,,,,,,,7,3,45,2,,,,,,,,,,,,,160.82117819999985,,,,,,,,,,,,,,,,,,,,,,,,,,,,,,,,160.81024909999996,160.82117819999985,161.31442239999978,161.31445379999968,161.32752739999978,161.51447949999965,161.51451420000012,161.53332039999987,161.53332039999987,161.53332039999987,162.03402509999978,162.03402509999978,162.19470830000046,['z'],[0.6534981000004336],[None],,,,,,,,,,,,,,,,,,,,,,,,,,,,,,,,,,,,,,,,,,,,,,,,,,,,,,,,,,,,,,,,,,,,,,,,,,938793,001,2024-07-31_16h52.21.770,final,2024.1.5,None,2024-07-31 16h52.24.912822 +0530,
images/5n.tiff,images/5n.tiff,,,,,,,7,4,46,4,,,,,,,,,,,,,162.20723420000013,,,,,,,,,,,,,,,,,,,,,,,,,,,,,,,,162.19522589999997,162.20723420000013,162.70080260000032,162.70083820000036,162.71383030000015,162.9007161999998,162.90074989999994,162.92134259999966,162.92134259999966,162.92134259999966,163.42032110000036,163.42032110000036,163.84808690000045,['z'],[0.9215642999997726],[None],,,,,,,,,,,,,,,,,,,,,,,,,,,,,,,,,,,,,,,,,,,,,,,,,,,,,,,,,,,,,,,,,,,,,,,,,,938793,001,2024-07-31_16h52.21.770,final,2024.1.5,None,2024-07-31 16h52.24.912822 +0530,
images/10n.tiff,images/5n.tiff,,,,,,,7,5,47,3,,,,,,,,,,,,,163.86011830000007,,,,,,,,,,,,,,,,,,,,,,,,,,,,,,,,163.84896630000003,163.86011830000007,164.35391359999994,164.35394730000007,164.36661220000042,164.55337820000022,164.55341020000014,164.5771064999999,164.5771064999999,164.5771064999999,165.07287429999997,165.07287429999997,165.60758890000034,['m'],[1.025634099999479],[None],,,,,,,,,,,,,,,,,,,,,,,,,,,,,,,,,,,,,,,,,,,,,,,,,,,,,,,,,,,,,,,,,,,,,,,,,,938793,001,2024-07-31_16h52.21.770,final,2024.1.5,None,2024-07-31 16h52.24.912822 +0530,
images/5n.tiff,images/5n.tiff,,,,,,,8,0,48,0,,,,,,,,,,,,,165.6194175999999,,,,,,,,,,,,,,,,,,,,,,,,,,,,,,,,165.6086365000001,165.6194175999999,166.11273950000032,166.11275899999964,166.12590480000017,166.31307279999965,166.31310600000052,166.33813250000003,166.33813250000003,166.33813250000003,166.8456954000003,166.8456954000003,167.11279000000013,['z'],[0.7615532999998322],[None],,,,,,,,,,,,,,,,,,,,,,,,,,,,,,,,,,,,,,,,,,,,,,,,,,,,,,,,,,,,,,,,,,,,,,,,,,938793,001,2024-07-31_16h52.21.770,final,2024.1.5,None,2024-07-31 16h52.24.912822 +0530,
images/10n.tiff,images/5n.tiff,,,,,,,8,1,49,3,,,,,,,,,,,,,167.12563200000022,,,,,,,,,,,,,,,,,,,,,,,,,,,,,,,,167.11334569999963,167.12563200000022,167.61914909999996,167.6191819000005,167.63216569999986,167.81912980000016,167.81916379999984,167.8392770999999,167.8392770999999,167.8392770999999,168.3386304000005,168.3386304000005,169.16726170000038,['z'],[1.323645800000122],[None],,,,,,,,,,,,,,,,,,,,,,,,,,,,,,,,,,,,,,,,,,,,,,,,,,,,,,,,,,,,,,,,,,,,,,,,,,938793,001,2024-07-31_16h52.21.770,final,2024.1.5,None,2024-07-31 16h52.24.912822 +0530,
images/5n.tiff,images/10n.tiff,,,,,,,8,2,50,1,,,,,,,,,,,,,169.1783322000001,,,,,,,,,,,,,,,,,,,,,,,,,,,,,,,,169.16857700000037,169.1783322000001,169.67203450000034,169.67211320000024,169.6847901000001,169.87166499999967,169.87169770000037,169.89378680000027,169.89378680000027,169.89378680000027,170.39143160000003,170.39143160000003,170.95327319999978,['z'],[1.053495799999837],[None],,,,,,,,,,,,,,,,,,,,,,,,,,,,,,,,,,,,,,,,,,,,,,,,,,,,,,,,,,,,,,,,,,,,,,,,,,938793,001,2024-07-31_16h52.21.770,final,2024.1.5,None,2024-07-31 16h52.24.912822 +0530,
images/10n.tiff,images/10n.tiff,,,,,,,8,3,51,5,,,,,,,,,,,,,170.96438300000045,,,,,,,,,,,,,,,,,,,,,,,,,,,,,,,,170.95430659999965,170.96438300000045,171.45775219999996,171.4577850000005,171.4710329999998,171.65771320000022,171.65774429999965,171.67882869999994,171.67882869999994,171.67882869999994,172.1773578000002,172.1773578000002,173.1518200999999,['z'],[1.4599741000001814],[None],,,,,,,,,,,,,,,,,,,,,,,,,,,,,,,,,,,,,,,,,,,,,,,,,,,,,,,,,,,,,,,,,,,,,,,,,,938793,001,2024-07-31_16h52.21.770,final,2024.1.5,None,2024-07-31 16h52.24.912822 +0530,
images/10n.tiff,images/10n.tiff,,,,,,,8,4,52,2,,,,,,,,,,,,,173.16358870000022,,,,,,,,,,,,,,,,,,,,,,,,,,,,,,,,173.15291210000032,173.16358870000022,173.65716789999988,173.6571995000004,173.67021110000042,173.85698860000048,173.85702000000038,173.8769970000003,173.8769970000003,173.8769970000003,174.37654639999982,174.37654639999982,174.77754780000032,['z'],[0.8935619000003499],[None],,,,,,,,,,,,,,,,,,,,,,,,,,,,,,,,,,,,,,,,,,,,,,,,,,,,,,,,,,,,,,,,,,,,,,,,,,938793,001,2024-07-31_16h52.21.770,final,2024.1.5,None,2024-07-31 16h52.24.912822 +0530,
images/5n.tiff,images/5n.tiff,,,,,,,8,5,53,4,,,,,,,,,,,,,174.78981099999964,,,,,,,,,,,,,,,,,,,,,,,,,,,,,,,,174.77818730000035,174.78981099999964,175.28303770000002,175.28306929999962,175.29634549999992,175.4832306999997,175.4832650999997,175.50475619999997,175.50475619999997,175.50475619999997,176.0027995999999,176.0027995999999,176.66985300000033,['z'],[1.1540214000006017],[None],,,,,,,,,,,,,,,,,,,,,,,,,,,,,,,,,,,,,,,,,,,,,,,,,,,,,,,,,,,,,,,,,,,,,,,,,,938793,001,2024-07-31_16h52.21.770,final,2024.1.5,None,2024-07-31 16h52.24.912822 +0530,
images/5n.tiff,images/5n.tiff,,,,,,,9,0,54,0,,,,,,,,,,,,,176.68250929999977,,,,,,,,,,,,,,,,,,,,,,,,,,,,,,,,176.67038039999989,176.68250929999977,177.1759602000002,177.17599530000007,177.1891225999998,177.37586999999985,177.37589790000038,177.3935575000005,177.3935575000005,177.3935575000005,177.89556379999976,177.89556379999976,178.26975159999984,['z'],[0.865155099999356],[None],,,,,,,,,,,,,,,,,,,,,,,,,,,,,,,,,,,,,,,,,,,,,,,,,,,,,,,,,,,,,,,,,,,,,,,,,,938793,001,2024-07-31_16h52.21.770,final,2024.1.5,None,2024-07-31 16h52.24.912822 +0530,
images/10n.tiff,images/10n.tiff,,,,,,,9,1,55,2,,,,,,,,,,,,,178.28183249999984,,,,,,,,,,,,,,,,,,,,,,,,,,,,,,,,178.27025760000015,178.28183249999984,178.77532919999976,178.7753634999999,178.7885397,178.97548280000046,178.97551230000045,178.99609380000038,178.99609380000038,178.99609380000038,179.49502180000036,179.49502180000036,180.0560607999996,['m'],[1.0544918000005055],[None],,,,,,,,,,,,,,,,,,,,,,,,,,,,,,,,,,,,,,,,,,,,,,,,,,,,,,,,,,,,,,,,,,,,,,,,,,938793,001,2024-07-31_16h52.21.770,final,2024.1.5,None,2024-07-31 16h52.24.912822 +0530,
images/10n.tiff,images/10n.tiff,,,,,,,9,2,56,5,,,,,,,,,,,,,180.0681639000004,,,,,,,,,,,,,,,,,,,,,,,,,,,,,,,,180.05697359999976,180.0681639000004,180.56154359999982,180.56158059999962,180.57478960000026,180.7614097000005,180.76144290000047,180.77909180000006,180.77909180000006,180.77909180000006,181.28112520000013,181.28112520000013,182.37436640000033,['m'],[1.5914854000002379],[None],,,,,,,,,,,,,,,,,,,,,,,,,,,,,,,,,,,,,,,,,,,,,,,,,,,,,,,,,,,,,,,,,,,,,,,,,,938793,001,2024-07-31_16h52.21.770,final,2024.1.5,None,2024-07-31 16h52.24.912822 +0530,
images/5n.tiff,images/5n.tiff,,,,,,,9,3,57,4,,,,,,,,,,,,,182.38726870000028,,,,,,,,,,,,,,,,,,,,,,,,,,,,,,,,182.37502440000026,182.38726870000028,182.8805828000004,182.88061620000008,182.89383449999968,183.08049819999997,183.0805295,183.09998939999969,183.09998939999969,183.09998939999969,183.6002994999999,183.6002994999999,183.7213883000004,['z'],[0.6151221000000078],[None],,,,,,,,,,,,,,,,,,,,,,,,,,,,,,,,,,,,,,,,,,,,,,,,,,,,,,,,,,,,,,,,,,,,,,,,,,938793,001,2024-07-31_16h52.21.770,final,2024.1.5,None,2024-07-31 16h52.24.912822 +0530,
images/5n.tiff,images/10n.tiff,,,,,,,9,4,58,1,,,,,,,,,,,,,183.73353080000015,,,,,,,,,,,,,,,,,,,,,,,,,,,,,,,,183.7221129999998,183.73353080000015,184.22696689999975,184.22700030000033,184.23998420000044,184.42685400000028,184.42688550000003,184.44937389999996,184.44937389999996,184.44937389999996,184.9464923000005,184.9464923000005,185.74780089999967,['m'],[1.28928310000083],[None],,,,,,,,,,,,,,,,,,,,,,,,,,,,,,,,,,,,,,,,,,,,,,,,,,,,,,,,,,,,,,,,,,,,,,,,,,938793,001,2024-07-31_16h52.21.770,final,2024.1.5,None,2024-07-31 16h52.24.912822 +0530,
images/10n.tiff,images/5n.tiff,,,,,,,9,5,59,3,,,,,,,,,,,,,185.7593741999999,,,,,,,,,,,,,,,,,,,,,,,,,,,,,,,,185.7487503000002,185.7593741999999,186.2528951000004,186.25292780000018,186.26614189999964,186.45292210000025,186.4529567999998,186.4743195000001,186.4743195000001,186.4743195000001,186.97249960000045,186.97249960000045,187.2544557000001,['m'],[0.776619500000379],[None],,,,,,,,,,,,,,,,,,,,,,,,,,,,,,,,,,,,,,,,,,,,,,,,,,,,,,,,,,,,,,,,,,,,,,,,,,938793,001,2024-07-31_16h52.21.770,final,2024.1.5,None,2024-07-31 16h52.24.912822 +0530,
,,,,,,,,,,,,,,,,,,,,,,,,,,,,,,,,,,,,,,,,,,,,,,,,,,,,,,,,,,,,,,,,,,,,,,,,187.25522759999967,187.2657104,187.2657104,217.12636780000048,space,29.856900400000086,None,,,,,,,,,,,,,,,,,,,,,,,,,,,,,,,,,,,,,,,,,,,,,,,,,,,,,,,,,,,,,,,,,,,938793,001,2024-07-31_16h52.21.770,final,2024.1.5,None,2024-07-31 16h52.24.912822 +0530,
images/18n.tiff,images/18n.tiff,,,,,,,,,,,0,0,0,5,,,,,,,,,217.14167879999968,,,,,,,,,,,,,,,,,,,,,,,,,,,,,,,,,,,,,,,,,,,,,,,,,,,,,,,217.13975699999992,217.14167879999968,217.62906889999977,217.62910100000045,217.64235259999987,217.8293039,217.8293392000005,217.85117170000012,217.85117170000012,217.85117170000012,218.34864300000027,218.34864300000027,223.24209659999997,['z'],[5.384265100000448],[None],,,,,,,,,,,,,,,,,,,,,,,,,,,,,,,,,,,,,,,,,,,,,,,,,,,938793,001,2024-07-31_16h52.21.770,final,2024.1.5,None,2024-07-31 16h52.24.912822 +0530,
images/18n.tiff,images/4n.tiff,,,,,,,,,,,0,1,1,2,,,,,,,,,223.25376890000007,,,,,,,,,,,,,,,,,,,,,,,,,,,,,,,,,,,,,,,,,,,,,,,,,,,,,,,223.24380529999962,223.25376890000007,223.74715540000034,223.7471888,223.76032740000028,223.94715890000043,223.9471934000003,223.9657698000001,223.9657698000001,223.9657698000001,224.46677790000012,224.46677790000012,225.84062819999963,['m'],[1.8613790999997946],[None],,,,,,,,,,,,,,,,,,,,,,,,,,,,,,,,,,,,,,,,,,,,,,,,,,,938793,001,2024-07-31_16h52.21.770,final,2024.1.5,None,2024-07-31 16h52.24.912822 +0530,
images/4n.tiff,images/18n.tiff,,,,,,,,,,,0,2,2,0,,,,,,,,,225.85311900000033,,,,,,,,,,,,,,,,,,,,,,,,,,,,,,,,,,,,,,,,,,,,,,,,,,,,,,,225.84150320000026,225.85311900000033,226.34628609999982,226.3463225000005,226.35954250000032,226.54631100000006,226.54634850000002,226.56799649999994,226.56799649999994,226.56799649999994,227.0657487999997,227.0657487999997,228.57387709999966,['m'],[2.0027023000002373],[None],,,,,,,,,,,,,,,,,,,,,,,,,,,,,,,,,,,,,,,,,,,,,,,,,,,938793,001,2024-07-31_16h52.21.770,final,2024.1.5,None,2024-07-31 16h52.24.912822 +0530,
images/18n.tiff,images/18n.tiff,,,,,,,,,,,0,3,3,3,,,,,,,,,228.58537890000025,,,,,,,,,,,,,,,,,,,,,,,,,,,,,,,,,,,,,,,,,,,,,,,,,,,,,,,228.57501709999997,228.58537890000025,229.07850280000002,229.0785132000001,229.09172769999986,229.27891499999987,229.2789585999999,229.29762070000015,229.29762070000015,229.29762070000015,229.7984005999997,229.7984005999997,230.8396832999997,['z'],[1.5293805999999677],[None],,,,,,,,,,,,,,,,,,,,,,,,,,,,,,,,,,,,,,,,,,,,,,,,,,,938793,001,2024-07-31_16h52.21.770,final,2024.1.5,None,2024-07-31 16h52.24.912822 +0530,
images/4n.tiff,images/4n.tiff,,,,,,,,,,,0,4,4,4,,,,,,,,,230.8514095999999,,,,,,,,,,,,,,,,,,,,,,,,,,,,,,,,,,,,,,,,,,,,,,,,,,,,,,,230.84090809999998,230.8514095999999,231.34423210000023,231.34426460000032,231.35755789999985,231.5444963,231.54453290000038,231.56280549999974,231.56280549999974,231.56280549999974,232.06430040000032,232.06430040000032,232.9591293000003,['z'],[1.39215460000014],[None],,,,,,,,,,,,,,,,,,,,,,,,,,,,,,,,,,,,,,,,,,,,,,,,,,,938793,001,2024-07-31_16h52.21.770,final,2024.1.5,None,2024-07-31 16h52.24.912822 +0530,
images/4n.tiff,images/4n.tiff,,,,,,,,,,,0,5,5,1,,,,,,,,,232.97068390000004,,,,,,,,,,,,,,,,,,,,,,,,,,,,,,,,,,,,,,,,,,,,,,,,,,,,,,,232.96027680000043,232.97068390000004,233.46391610000046,233.46395070000017,233.47713569999996,233.66408800000045,233.66412750000018,233.68279669999993,233.68279669999993,233.68279669999993,234.18341820000023,234.18341820000023,234.87860569999975,['z'],[1.1925013999998555],[None],,,,,,,,,,,,,,,,,,,,,,,,,,,,,,,,,,,,,,,,,,,,,,,,,,,938793,001,2024-07-31_16h52.21.770,final,2024.1.5,None,2024-07-31 16h52.24.912822 +0530,
images/4n.tiff,images/18n.tiff,,,,,,,,,,,1,0,6,0,,,,,,,,,234.8900260999999,,,,,,,,,,,,,,,,,,,,,,,,,,,,,,,,,,,,,,,,,,,,,,,,,,,,,,,234.87962140000036,234.8900260999999,235.38334329999998,235.3833784999997,235.3964874000003,235.58325960000002,235.58329380000032,235.60239030000048,235.60239030000048,235.60239030000048,236.10288320000018,236.10288320000018,236.58414410000023,['m'],[0.9767130000000179],[None],,,,,,,,,,,,,,,,,,,,,,,,,,,,,,,,,,,,,,,,,,,,,,,,,,,938793,001,2024-07-31_16h52.21.770,final,2024.1.5,None,2024-07-31 16h52.24.912822 +0530,
images/4n.tiff,images/4n.tiff,,,,,,,,,,,1,1,7,4,,,,,,,,,236.5961973000003,,,,,,,,,,,,,,,,,,,,,,,,,,,,,,,,,,,,,,,,,,,,,,,,,,,,,,,236.58530189999965,236.5961973000003,237.08948770000006,237.0895190000001,237.10246720000032,237.28944130000036,237.28947789999984,237.30813409999973,237.30813409999973,237.30813409999973,237.80903709999984,237.80903709999984,238.4103025000004,['z'],[1.0947785999996995],[None],,,,,,,,,,,,,,,,,,,,,,,,,,,,,,,,,,,,,,,,,,,,,,,,,,,938793,001,2024-07-31_16h52.21.770,final,2024.1.5,None,2024-07-31 16h52.24.912822 +0530,
images/18n.tiff,images/18n.tiff,,,,,,,,,,,1,2,8,5,,,,,,,,,238.42200609999963,,,,,,,,,,,,,,,,,,,,,,,,,,,,,,,,,,,,,,,,,,,,,,,,,,,,,,,238.41147720000026,238.42200609999963,238.91532259999985,238.9153384000001,238.9286443000001,239.1154274999999,239.11546269999963,239.13429369999994,239.13429369999994,239.13429369999994,239.63523880000048,239.63523880000048,243.26215690000026,['m'],[4.124665399999685],[None],,,,,,,,,,,,,,,,,,,,,,,,,,,,,,,,,,,,,,,,,,,,,,,,,,,938793,001,2024-07-31_16h52.21.770,final,2024.1.5,None,2024-07-31 16h52.24.912822 +0530,
images/18n.tiff,images/18n.tiff,,,,,,,,,,,1,3,9,3,,,,,,,,,243.2738973000005,,,,,,,,,,,,,,,,,,,,,,,,,,,,,,,,,,,,,,,,,,,,,,,,,,,,,,,243.2632235000001,243.2738973000005,243.7674237000001,243.76745930000016,243.78041850000045,243.9671398999999,243.96717179999996,243.98683100000017,243.98683100000017,243.98683100000017,244.4868378000001,244.4868378000001,245.10167869999987,['z'],[1.1045333000001847],[None],,,,,,,,,,,,,,,,,,,,,,,,,,,,,,,,,,,,,,,,,,,,,,,,,,,938793,001,2024-07-31_16h52.21.770,final,2024.1.5,None,2024-07-31 16h52.24.912822 +0530,
images/4n.tiff,images/4n.tiff,,,,,,,,,,,1,4,10,1,,,,,,,,,245.1133202000001,,,,,,,,,,,,,,,,,,,,,,,,,,,,,,,,,,,,,,,,,,,,,,,,,,,,,,,245.10272299999997,245.1133202000001,245.60679580000033,245.60683030000018,245.61989989999984,245.80663809999987,245.80667110000013,245.82926150000003,245.82926150000003,245.82926150000003,246.32621879999988,246.32621879999988,247.0340323999999,['z'],[1.1975488999996742],[None],,,,,,,,,,,,,,,,,,,,,,,,,,,,,,,,,,,,,,,,,,,,,,,,,,,938793,001,2024-07-31_16h52.21.770,final,2024.1.5,None,2024-07-31 16h52.24.912822 +0530,
images/18n.tiff,images/4n.tiff,,,,,,,,,,,1,5,11,2,,,,,,,,,247.04605770000035,,,,,,,,,,,,,,,,,,,,,,,,,,,,,,,,,,,,,,,,,,,,,,,,,,,,,,,247.0350196999998,247.04605770000035,247.53939580000042,247.53943119999985,247.55275489999985,247.73937620000015,247.73941339999965,247.7581170000003,247.7581170000003,247.7581170000003,248.25895500000024,248.25895500000024,249.27310860000034,['m'],[1.5012782000003426],[None],,,,,,,,,,,,,,,,,,,,,,,,,,,,,,,,,,,,,,,,,,,,,,,,,,,938793,001,2024-07-31_16h52.21.770,final,2024.1.5,None,2024-07-31 16h52.24.912822 +0530,
images/18n.tiff,images/18n.tiff,,,,,,,,,,,2,0,12,3,,,,,,,,,249.28524629999993,,,,,,,,,,,,,,,,,,,,,,,,,,,,,,,,,,,,,,,,,,,,,,,,,,,,,,,249.27429500000017,249.28524629999993,249.77862860000005,249.77866379999978,249.79183120000016,249.9786992999998,249.97873549999986,249.9989102999998,249.9989102999998,249.9989102999998,250.49823050000032,250.49823050000032,251.69940080000015,['z'],[1.6919636000002356],[None],,,,,,,,,,,,,,,,,,,,,,,,,,,,,,,,,,,,,,,,,,,,,,,,,,,938793,001,2024-07-31_16h52.21.770,final,2024.1.5,None,2024-07-31 16h52.24.912822 +0530,
images/4n.tiff,images/18n.tiff,,,,,,,,,,,2,1,13,0,,,,,,,,,251.71116059999986,,,,,,,,,,,,,,,,,,,,,,,,,,,,,,,,,,,,,,,,,,,,,,,,,,,,,,,251.70055550000052,251.71116059999986,252.20458599999984,252.20462279999992,252.2175718999997,252.4044560000002,252.4044872000004,252.42426499999965,252.42426499999965,252.42426499999965,252.92414689999987,252.92414689999987,253.68549220000023,['m'],[1.2507221000005302],[None],,,,,,,,,,,,,,,,,,,,,,,,,,,,,,,,,,,,,,,,,,,,,,,,,,,938793,001,2024-07-31_16h52.21.770,final,2024.1.5,None,2024-07-31 16h52.24.912822 +0530,
images/4n.tiff,images/4n.tiff,,,,,,,,,,,2,2,14,1,,,,,,,,,253.69706570000017,,,,,,,,,,,,,,,,,,,,,,,,,,,,,,,,,,,,,,,,,,,,,,,,,,,,,,,253.68658620000042,253.69706570000017,254.19044910000048,254.19048350000048,254.20364380000046,254.39078599999993,254.39082130000043,254.41146170000047,254.41146170000047,254.41146170000047,254.91005440000026,254.91005440000026,256.4312619000002,['z'],[2.0152680999999575],[None],,,,,,,,,,,,,,,,,,,,,,,,,,,,,,,,,,,,,,,,,,,,,,,,,,,938793,001,2024-07-31_16h52.21.770,final,2024.1.5,None,2024-07-31 16h52.24.912822 +0530,
images/18n.tiff,images/18n.tiff,,,,,,,,,,,2,3,15,5,,,,,,,,,256.4428539999999,,,,,,,,,,,,,,,,,,,,,,,,,,,,,,,,,,,,,,,,,,,,,,,,,,,,,,,256.43231209999976,256.4428539999999,256.93618270000024,256.9362100999997,256.9494990000003,257.13618140000017,257.1362147,257.1542973000005,257.1542973000005,257.1542973000005,257.6557124000001,257.6557124000001,258.12262100000044,['z'],[0.9602697000000262],[None],,,,,,,,,,,,,,,,,,,,,,,,,,,,,,,,,,,,,,,,,,,,,,,,,,,938793,001,2024-07-31_16h52.21.770,final,2024.1.5,None,2024-07-31 16h52.24.912822 +0530,
images/18n.tiff,images/4n.tiff,,,,,,,,,,,2,4,16,2,,,,,,,,,258.1353922999997,,,,,,,,,,,,,,,,,,,,,,,,,,,,,,,,,,,,,,,,,,,,,,,,,,,,,,,258.1230193000001,258.1353922999997,258.62913819999994,258.6291716000005,258.64226789999975,258.82902250000006,258.8290569999999,258.8511897999997,258.8511897999997,258.8511897999997,259.34870779999983,259.34870779999983,260.08333969999967,['m'],[1.223599899999499],[None],,,,,,,,,,,,,,,,,,,,,,,,,,,,,,,,,,,,,,,,,,,,,,,,,,,938793,001,2024-07-31_16h52.21.770,final,2024.1.5,None,2024-07-31 16h52.24.912822 +0530,
images/4n.tiff,images/4n.tiff,,,,,,,,,,,2,5,17,4,,,,,,,,,260.0949988000002,,,,,,,,,,,,,,,,,,,,,,,,,,,,,,,,,,,,,,,,,,,,,,,,,,,,,,,260.0844465,260.0949988000002,260.5885312999999,260.58856769999966,260.6016623000005,260.78810169999997,260.78810989999965,260.80414440000004,260.80414440000004,260.80414440000004,261.3080441000002,261.3080441000002,263.2151180999999,['z'],[2.3992896999998266],[None],,,,,,,,,,,,,,,,,,,,,,,,,,,,,,,,,,,,,,,,,,,,,,,,,,,938793,001,2024-07-31_16h52.21.770,final,2024.1.5,None,2024-07-31 16h52.24.912822 +0530,
images/4n.tiff,images/4n.tiff,,,,,,,,,,,3,0,18,4,,,,,,,,,263.2274147999997,,,,,,,,,,,,,,,,,,,,,,,,,,,,,,,,,,,,,,,,,,,,,,,,,,,,,,,263.2161944999998,263.2274147999997,263.7206243999999,263.7206573000003,263.7337542000005,263.9207798999996,263.9208147999998,263.94271279999975,263.94271279999975,263.94271279999975,264.4403001999999,264.4403001999999,264.7486236000004,['z'],[0.803987600000255],[None],,,,,,,,,,,,,,,,,,,,,,,,,,,,,,,,,,,,,,,,,,,,,,,,,,,938793,001,2024-07-31_16h52.21.770,final,2024.1.5,None,2024-07-31 16h52.24.912822 +0530,
images/18n.tiff,images/4n.tiff,,,,,,,,,,,3,1,19,2,,,,,,,,,264.7602271000005,,,,,,,,,,,,,,,,,,,,,,,,,,,,,,,,,,,,,,,,,,,,,,,,,,,,,,,264.74979299999995,264.7602271000005,265.25342999999975,265.25346420000005,265.26667670000006,265.4533032999998,265.4533369999999,265.4724412000005,265.4724412000005,265.4724412000005,265.9729403000001,265.9729403000001,266.37467370000013,['m'],[0.8984608000000662],[None],,,,,,,,,,,,,,,,,,,,,,,,,,,,,,,,,,,,,,,,,,,,,,,,,,,938793,001,2024-07-31_16h52.21.770,final,2024.1.5,None,2024-07-31 16h52.24.912822 +0530,
images/18n.tiff,images/18n.tiff,,,,,,,,,,,3,2,20,5,,,,,,,,,266.38634170000023,,,,,,,,,,,,,,,,,,,,,,,,,,,,,,,,,,,,,,,,,,,,,,,,,,,,,,,266.3758807000004,266.38634170000023,266.87969780000003,266.87973299999976,266.8927567999999,267.0795822,267.07961720000003,267.0980142999997,267.0980142999997,267.0980142999997,267.5993782000005,267.5993782000005,268.1473943000001,['z'],[1.0407091999995828],[None],,,,,,,,,,,,,,,,,,,,,,,,,,,,,,,,,,,,,,,,,,,,,,,,,,,938793,001,2024-07-31_16h52.21.770,final,2024.1.5,None,2024-07-31 16h52.24.912822 +0530,
images/18n.tiff,images/18n.tiff,,,,,,,,,,,3,3,21,3,,,,,,,,,268.1589810000005,,,,,,,,,,,,,,,,,,,,,,,,,,,,,,,,,,,,,,,,,,,,,,,,,,,,,,,268.14897569999994,268.1589810000005,268.6523151000001,268.65235630000006,268.6656197000002,268.85229140000047,268.85232480000013,268.87355339999976,268.87355339999976,268.87355339999976,269.3718856000005,269.3718856000005,270.5070753,['z'],[1.6251408999996784],[None],,,,,,,,,,,,,,,,,,,,,,,,,,,,,,,,,,,,,,,,,,,,,,,,,,,938793,001,2024-07-31_16h52.21.770,final,2024.1.5,None,2024-07-31 16h52.24.912822 +0530,
images/4n.tiff,images/18n.tiff,,,,,,,,,,,3,4,22,0,,,,,,,,,270.5185306000003,,,,,,,,,,,,,,,,,,,,,,,,,,,,,,,,,,,,,,,,,,,,,,,,,,,,,,,270.50815729999977,270.5185306000003,271.01148139999987,271.01151709999976,271.02476540000043,271.21144749999985,271.21148019999964,271.2294244000004,271.2294244000004,271.2294244000004,271.7311956000003,271.7311956000003,273.2790328000001,['m'],[2.045472300000256],[None],,,,,,,,,,,,,,,,,,,,,,,,,,,,,,,,,,,,,,,,,,,,,,,,,,,938793,001,2024-07-31_16h52.21.770,final,2024.1.5,None,2024-07-31 16h52.24.912822 +0530,
images/4n.tiff,images/4n.tiff,,,,,,,,,,,3,5,23,1,,,,,,,,,273.2906386000004,,,,,,,,,,,,,,,,,,,,,,,,,,,,,,,,,,,,,,,,,,,,,,,,,,,,,,,273.28020639999977,273.2906386000004,273.78415529999984,273.7841897999997,273.7972781999997,273.9841414000002,273.9841763000004,274.00345749999997,274.00345749999997,274.00345749999997,274.5037170000005,274.5037170000005,275.1447887000004,['z'],[1.127892200000133],[None],,,,,,,,,,,,,,,,,,,,,,,,,,,,,,,,,,,,,,,,,,,,,,,,,,,938793,001,2024-07-31_16h52.21.770,final,2024.1.5,None,2024-07-31 16h52.24.912822 +0530,
images/18n.tiff,images/4n.tiff,,,,,,,,,,,4,0,24,2,,,,,,,,,275.1568060999998,,,,,,,,,,,,,,,,,,,,,,,,,,,,,,,,,,,,,,,,,,,,,,,,,,,,,,,275.1459015999999,275.1568060999998,275.65003160000015,275.6500633000005,275.6632636000004,275.8498652999997,275.84989719999976,275.8680449000003,275.8680449000003,275.8680449000003,276.36943359999987,276.36943359999987,277.3178349,['m'],[1.4394404000004215],[None],,,,,,,,,,,,,,,,,,,,,,,,,,,,,,,,,,,,,,,,,,,,,,,,,,,938793,001,2024-07-31_16h52.21.770,final,2024.1.5,None,2024-07-31 16h52.24.912822 +0530,
images/4n.tiff,images/18n.tiff,,,,,,,,,,,4,1,25,0,,,,,,,,,277.3293392000005,,,,,,,,,,,,,,,,,,,,,,,,,,,,,,,,,,,,,,,,,,,,,,,,,,,,,,,277.3188839000004,277.3293392000005,277.8227015000002,277.8227347000002,277.83592560000034,278.0228040000002,278.02284020000025,278.04566090000026,278.04566090000026,278.04566090000026,278.5423705000003,278.5423705000003,279.54226970000036,['m'],[1.4852038999997603],[None],,,,,,,,,,,,,,,,,,,,,,,,,,,,,,,,,,,,,,,,,,,,,,,,,,,938793,001,2024-07-31_16h52.21.770,final,2024.1.5,None,2024-07-31 16h52.24.912822 +0530,
images/18n.tiff,images/18n.tiff,,,,,,,,,,,4,2,26,5,,,,,,,,,279.55522199999996,,,,,,,,,,,,,,,,,,,,,,,,,,,,,,,,,,,,,,,,,,,,,,,,,,,,,,,279.54260690000046,279.55522199999996,280.0487271000002,280.0487616999999,280.0619684000003,280.24841920000017,280.2484508999996,280.2659517000002,280.2659517000002,280.2659517000002,280.7682199000001,280.7682199000001,281.54213809999965,['z'],[1.2649796000005153],[None],,,,,,,,,,,,,,,,,,,,,,,,,,,,,,,,,,,,,,,,,,,,,,,,,,,938793,001,2024-07-31_16h52.21.770,final,2024.1.5,None,2024-07-31 16h52.24.912822 +0530,
images/18n.tiff,images/18n.tiff,,,,,,,,,,,4,3,27,3,,,,,,,,,281.5546172000004,,,,,,,,,,,,,,,,,,,,,,,,,,,,,,,,,,,,,,,,,,,,,,,,,,,,,,,281.54279680000036,281.5546172000004,282.04781360000015,282.0478468000001,282.06112349999967,282.24771489999966,282.2477306999999,282.2632088999999,282.2632088999999,282.2632088999999,282.7676727999997,282.7676727999997,283.5289143,['z'],[1.2593251000007513],[None],,,,,,,,,,,,,,,,,,,,,,,,,,,,,,,,,,,,,,,,,,,,,,,,,,,938793,001,2024-07-31_16h52.21.770,final,2024.1.5,None,2024-07-31 16h52.24.912822 +0530,
images/4n.tiff,images/4n.tiff,,,,,,,,,,,4,4,28,4,,,,,,,,,283.54072429999997,,,,,,,,,,,,,,,,,,,,,,,,,,,,,,,,,,,,,,,,,,,,,,,,,,,,,,,283.5300425000005,283.54072429999997,284.03421809999963,284.03425400000015,284.0472748000002,284.2339970000003,284.23402890000034,284.25608269999975,284.25608269999975,284.25608269999975,284.75371840000025,284.75371840000025,285.19500640000024,['z'],[0.9310370000002877],[None],,,,,,,,,,,,,,,,,,,,,,,,,,,,,,,,,,,,,,,,,,,,,,,,,,,938793,001,2024-07-31_16h52.21.770,final,2024.1.5,None,2024-07-31 16h52.24.912822 +0530,
images/4n.tiff,images/4n.tiff,,,,,,,,,,,4,5,29,1,,,,,,,,,285.2067969999998,,,,,,,,,,,,,,,,,,,,,,,,,,,,,,,,,,,,,,,,,,,,,,,,,,,,,,,285.19613579999987,285.2067969999998,285.7002484000004,285.70028360000015,285.7133394000002,285.9002569000004,285.90029179999965,285.9198569,285.9198569,285.9198569,286.4197761000005,286.4197761000005,287.0077406999999,['z'],[1.0834501000008459],[None],,,,,,,,,,,,,,,,,,,,,,,,,,,,,,,,,,,,,,,,,,,,,,,,,,,938793,001,2024-07-31_16h52.21.770,final,2024.1.5,None,2024-07-31 16h52.24.912822 +0530,
images/4n.tiff,images/4n.tiff,,,,,,,,,,,5,0,30,4,,,,,,,,,287.0196197000005,,,,,,,,,,,,,,,,,,,,,,,,,,,,,,,,,,,,,,,,,,,,,,,,,,,,,,,287.00889559999996,287.0196197000005,287.5129907999999,287.51302699999997,287.52604040000006,287.71294000000034,287.7129743000005,287.7327224999999,287.7327224999999,287.7327224999999,288.2324792999998,288.2324792999998,288.6742256999996,['z'],[0.934925700000349],[None],,,,,,,,,,,,,,,,,,,,,,,,,,,,,,,,,,,,,,,,,,,,,,,,,,,938793,001,2024-07-31_16h52.21.770,final,2024.1.5,None,2024-07-31 16h52.24.912822 +0530,
images/4n.tiff,images/4n.tiff,,,,,,,,,,,5,1,31,1,,,,,,,,,288.68560869999965,,,,,,,,,,,,,,,,,,,,,,,,,,,,,,,,,,,,,,,,,,,,,,,,,,,,,,,288.6753544000003,288.68560869999965,289.17905840000003,289.17909280000003,289.1923188999999,289.3790791000001,289.3791151000005,289.39881760000026,289.39881760000026,289.39881760000026,289.8985861000001,289.8985861000001,290.1255944000004,['z'],[0.7170031999994535],[None],,,,,,,,,,,,,,,,,,,,,,,,,,,,,,,,,,,,,,,,,,,,,,,,,,,938793,001,2024-07-31_16h52.21.770,final,2024.1.5,None,2024-07-31 16h52.24.912822 +0530,
images/18n.tiff,images/18n.tiff,,,,,,,,,,,5,2,32,5,,,,,,,,,290.13843259999976,,,,,,,,,,,,,,,,,,,,,,,,,,,,,,,,,,,,,,,,,,,,,,,,,,,,,,,290.12596120000035,290.13843259999976,290.63186980000046,290.6319040999997,290.6450571000005,290.8318706,290.8319037000001,290.8546621000005,290.8546621000005,290.8546621000005,291.3515017999998,291.3515017999998,291.85929940000005,['z'],[0.9958239999996295],[None],,,,,,,,,,,,,,,,,,,,,,,,,,,,,,,,,,,,,,,,,,,,,,,,,,,938793,001,2024-07-31_16h52.21.770,final,2024.1.5,None,2024-07-31 16h52.24.912822 +0530,
images/4n.tiff,images/18n.tiff,,,,,,,,,,,5,3,33,0,,,,,,,,,291.8714393999999,,,,,,,,,,,,,,,,,,,,,,,,,,,,,,,,,,,,,,,,,,,,,,,,,,,,,,,291.8603457999998,291.8714393999999,292.3648210000001,292.3648596000003,292.3778596000002,292.5646389000003,292.5646711999998,292.5890945000001,292.5890945000001,292.5890945000001,293.09761640000033,293.09761640000033,293.52595159999964,['m'],[0.9343338999997286],[None],,,,,,,,,,,,,,,,,,,,,,,,,,,,,,,,,,,,,,,,,,,,,,,,,,,938793,001,2024-07-31_16h52.21.770,final,2024.1.5,None,2024-07-31 16h52.24.912822 +0530,
images/18n.tiff,images/4n.tiff,,,,,,,,,,,5,4,34,2,,,,,,,,,293.5374383999997,,,,,,,,,,,,,,,,,,,,,,,,,,,,,,,,,,,,,,,,,,,,,,,,,,,,,,,293.5270056999998,293.5374383999997,294.0305618000002,294.0305949000003,294.0439416999998,294.2306486999996,294.23068260000036,294.24992230000043,294.24992230000043,294.24992230000043,294.7504349999999,294.7504349999999,295.4317557000004,['m'],[1.1772864999993544],[None],,,,,,,,,,,,,,,,,,,,,,,,,,,,,,,,,,,,,,,,,,,,,,,,,,,938793,001,2024-07-31_16h52.21.770,final,2024.1.5,None,2024-07-31 16h52.24.912822 +0530,
images/18n.tiff,images/18n.tiff,,,,,,,,,,,5,5,35,3,,,,,,,,,295.4434633999999,,,,,,,,,,,,,,,,,,,,,,,,,,,,,,,,,,,,,,,,,,,,,,,,,,,,,,,295.4328333000003,295.4434633999999,295.93683059999967,295.9368629999999,295.94988769999964,296.1368074000002,296.13683969999965,296.1559250999999,296.1559250999999,296.1559250999999,296.65646000000015,296.65646000000015,297.2979138999999,['z'],[1.1350037000001976],[None],,,,,,,,,,,,,,,,,,,,,,,,,,,,,,,,,,,,,,,,,,,,,,,,,,,938793,001,2024-07-31_16h52.21.770,final,2024.1.5,None,2024-07-31 16h52.24.912822 +0530,
images/18n.tiff,images/18n.tiff,,,,,,,,,,,6,0,36,3,,,,,,,,,297.30941410000014,,,,,,,,,,,,,,,,,,,,,,,,,,,,,,,,,,,,,,,,,,,,,,,,,,,,,,,297.2988787000004,297.30941410000014,297.80283510000027,297.8028688000004,297.8160207000001,298.00280399999974,298.0028385000005,298.0221596000001,298.0221596000001,298.0221596000001,298.52249159999974,298.52249159999974,298.99077039999975,['z'],[0.964520999999877],[None],,,,,,,,,,,,,,,,,,,,,,,,,,,,,,,,,,,,,,,,,,,,,,,,,,,938793,001,2024-07-31_16h52.21.770,final,2024.1.5,None,2024-07-31 16h52.24.912822 +0530,
images/4n.tiff,images/4n.tiff,,,,,,,,,,,6,1,37,4,,,,,,,,,299.0022818999996,,,,,,,,,,,,,,,,,,,,,,,,,,,,,,,,,,,,,,,,,,,,,,,,,,,,,,,298.9919140000002,299.0022818999996,299.49555020000025,299.4955909,299.50862080000024,299.6955693,299.6956025999998,299.7140717000002,299.7140717000002,299.7140717000002,300.21526619999986,300.21526619999986,300.6293433999999,['z'],[0.9130834999996296],[None],,,,,,,,,,,,,,,,,,,,,,,,,,,,,,,,,,,,,,,,,,,,,,,,,,,938793,001,2024-07-31_16h52.21.770,final,2024.1.5,None,2024-07-31 16h52.24.912822 +0530,
images/18n.tiff,images/18n.tiff,,,,,,,,,,,6,2,38,5,,,,,,,,,300.6417548999998,,,,,,,,,,,,,,,,,,,,,,,,,,,,,,,,,,,,,,,,,,,,,,,,,,,,,,,300.62996139999996,300.6417548999998,301.13523330000044,301.13526420000017,301.1483866999997,301.3353500000003,301.3353847999997,301.3532842000004,301.3532842000004,301.3532842000004,301.8547755999998,301.8547755999998,302.42914500000006,['z'],[1.0657068999998955],[None],,,,,,,,,,,,,,,,,,,,,,,,,,,,,,,,,,,,,,,,,,,,,,,,,,,938793,001,2024-07-31_16h52.21.770,final,2024.1.5,None,2024-07-31 16h52.24.912822 +0530,
images/18n.tiff,images/4n.tiff,,,,,,,,,,,6,3,39,2,,,,,,,,,302.4411123,,,,,,,,,,,,,,,,,,,,,,,,,,,,,,,,,,,,,,,,,,,,,,,,,,,,,,,302.4301961000001,302.4411123,302.9346195999997,302.9346556999999,302.9476192000002,303.13444830000026,303.1344813000005,303.1524698000003,303.1524698000003,303.1524698000003,303.6540861000003,303.6540861000003,304.74849170000016,['m'],[1.586096500000167],[None],,,,,,,,,,,,,,,,,,,,,,,,,,,,,,,,,,,,,,,,,,,,,,,,,,,938793,001,2024-07-31_16h52.21.770,final,2024.1.5,None,2024-07-31 16h52.24.912822 +0530,
images/4n.tiff,images/4n.tiff,,,,,,,,,,,6,4,40,1,,,,,,,,,304.76038489999974,,,,,,,,,,,,,,,,,,,,,,,,,,,,,,,,,,,,,,,,,,,,,,,,,,,,,,,304.7496745999997,304.76038489999974,305.25388010000006,305.25391560000025,305.26689950000036,305.4536736,305.4537049999999,305.47190729999966,305.47190729999966,305.47190729999966,305.9733444000003,305.9733444000003,306.22900949999985,['z'],[0.7548722000001362],[None],,,,,,,,,,,,,,,,,,,,,,,,,,,,,,,,,,,,,,,,,,,,,,,,,,,938793,001,2024-07-31_16h52.21.770,final,2024.1.5,None,2024-07-31 16h52.24.912822 +0530,
images/4n.tiff,images/18n.tiff,,,,,,,,,,,6,5,41,0,,,,,,,,,306.23991810000007,,,,,,,,,,,,,,,,,,,,,,,,,,,,,,,,,,,,,,,,,,,,,,,,,,,,,,,306.23012540000036,306.23991810000007,306.7332825000003,306.7333180000005,306.74639600000046,306.93340350000017,306.9334411,306.9530325000005,306.9530325000005,306.9530325000005,307.45284210000045,307.45284210000045,307.86782270000003,['m'],[0.9059836000005816],[None],,,,,,,,,,,,,,,,,,,,,,,,,,,,,,,,,,,,,,,,,,,,,,,,,,,938793,001,2024-07-31_16h52.21.770,final,2024.1.5,None,2024-07-31 16h52.24.912822 +0530,
images/4n.tiff,images/18n.tiff,,,,,,,,,,,7,0,42,0,,,,,,,,,307.8793891000005,,,,,,,,,,,,,,,,,,,,,,,,,,,,,,,,,,,,,,,,,,,,,,,,,,,,,,,307.86895149999964,307.8793891000005,308.3727762999997,308.3728103000003,308.3858688999999,308.57294850000017,308.57299049999983,308.59146130000045,308.59146130000045,308.59146130000045,309.0923270000003,309.0923270000003,309.3604028999998,['m'],[0.7632125999998607],[None],,,,,,,,,,,,,,,,,,,,,,,,,,,,,,,,,,,,,,,,,,,,,,,,,,,938793,001,2024-07-31_16h52.21.770,final,2024.1.5,None,2024-07-31 16h52.24.912822 +0530,
images/4n.tiff,images/4n.tiff,,,,,,,,,,,7,1,43,4,,,,,,,,,309.3722330999999,,,,,,,,,,,,,,,,,,,,,,,,,,,,,,,,,,,,,,,,,,,,,,,,,,,,,,,309.3614741000001,309.3722330999999,309.86546369999996,309.8654961000002,309.87894640000013,310.0652620999999,310.0652944000003,310.08459500000026,310.08459500000026,310.08459500000026,310.58517699999993,310.58517699999993,311.0131511999998,['z'],[0.9184880000002522],[None],,,,,,,,,,,,,,,,,,,,,,,,,,,,,,,,,,,,,,,,,,,,,,,,,,,938793,001,2024-07-31_16h52.21.770,final,2024.1.5,None,2024-07-31 16h52.24.912822 +0530,
images/4n.tiff,images/4n.tiff,,,,,,,,,,,7,2,44,1,,,,,,,,,311.0248068000001,,,,,,,,,,,,,,,,,,,,,,,,,,,,,,,,,,,,,,,,,,,,,,,,,,,,,,,311.0141298999997,311.0248068000001,311.5183342999999,311.51836679999997,311.53147999999965,311.7181988000002,311.7182309,311.73558969999976,311.73558969999976,311.73558969999976,312.2379127000004,312.2379127000004,312.67950610000025,['z'],[0.9391003999999157],[None],,,,,,,,,,,,,,,,,,,,,,,,,,,,,,,,,,,,,,,,,,,,,,,,,,,938793,001,2024-07-31_16h52.21.770,final,2024.1.5,None,2024-07-31 16h52.24.912822 +0530,
images/18n.tiff,images/18n.tiff,,,,,,,,,,,7,3,45,3,,,,,,,,,312.69103259999974,,,,,,,,,,,,,,,,,,,,,,,,,,,,,,,,,,,,,,,,,,,,,,,,,,,,,,,312.68050419999963,312.69103259999974,313.1844904999998,313.18452979999984,313.1976768000004,313.38445690000026,313.38449330000003,313.40515959999993,313.40515959999993,313.40515959999993,313.90389330000016,313.90389330000016,314.49318930000027,['z'],[1.0857888000000457],[None],,,,,,,,,,,,,,,,,,,,,,,,,,,,,,,,,,,,,,,,,,,,,,,,,,,938793,001,2024-07-31_16h52.21.770,final,2024.1.5,None,2024-07-31 16h52.24.912822 +0530,
images/18n.tiff,images/4n.tiff,,,,,,,,,,,7,4,46,2,,,,,,,,,314.5036081999997,,,,,,,,,,,,,,,,,,,,,,,,,,,,,,,,,,,,,,,,,,,,,,,,,,,,,,,314.49446890000036,314.5036081999997,314.99720270000034,314.99723449999965,315.0103764000005,315.1970566,315.19708850000006,315.2147041999997,315.2147041999997,315.2147041999997,315.7167251000001,315.7167251000001,316.26498569999967,['m'],[1.0446246000001338],[None],,,,,,,,,,,,,,,,,,,,,,,,,,,,,,,,,,,,,,,,,,,,,,,,,,,938793,001,2024-07-31_16h52.21.770,final,2024.1.5,None,2024-07-31 16h52.24.912822 +0530,
images/18n.tiff,images/18n.tiff,,,,,,,,,,,7,5,47,5,,,,,,,,,316.2766062999999,,,,,,,,,,,,,,,,,,,,,,,,,,,,,,,,,,,,,,,,,,,,,,,,,,,,,,,316.2660139999998,316.2766062999999,316.7699445999997,316.76998079999976,316.7830942999999,316.9700561999998,316.9700934000002,316.9889304999997,316.9889304999997,316.9889304999997,317.48953150000034,317.48953150000034,317.87880229999973,['z'],[0.8863670000000639],[None],,,,,,,,,,,,,,,,,,,,,,,,,,,,,,,,,,,,,,,,,,,,,,,,,,,938793,001,2024-07-31_16h52.21.770,final,2024.1.5,None,2024-07-31 16h52.24.912822 +0530,
images/4n.tiff,images/18n.tiff,,,,,,,,,,,8,0,48,0,,,,,,,,,317.8893672000004,,,,,,,,,,,,,,,,,,,,,,,,,,,,,,,,,,,,,,,,,,,,,,,,,,,,,,,317.8797875,317.8893672000004,318.38253780000014,318.38257049999993,318.3958582000005,318.58250020000014,318.58253539999987,318.60673120000047,318.60673120000047,318.60673120000047,319.10222150000027,319.10222150000027,319.71688259999974,['m'],[1.1083859000000302],[None],,,,,,,,,,,,,,,,,,,,,,,,,,,,,,,,,,,,,,,,,,,,,,,,,,,938793,001,2024-07-31_16h52.21.770,final,2024.1.5,None,2024-07-31 16h52.24.912822 +0530,
images/4n.tiff,images/4n.tiff,,,,,,,,,,,8,1,49,1,,,,,,,,,319.72877309999967,,,,,,,,,,,,,,,,,,,,,,,,,,,,,,,,,,,,,,,,,,,,,,,,,,,,,,,319.7179818000004,319.72877309999967,320.2220362999997,320.2220720000005,320.23518179999974,320.4218391000004,320.4218627999999,320.4398430000001,320.4398430000001,320.4398430000001,320.94164139999975,320.94164139999975,321.1429342000001,['z'],[0.6907492000000275],[None],,,,,,,,,,,,,,,,,,,,,,,,,,,,,,,,,,,,,,,,,,,,,,,,,,,938793,001,2024-07-31_16h52.21.770,final,2024.1.5,None,2024-07-31 16h52.24.912822 +0530,
images/18n.tiff,images/4n.tiff,,,,,,,,,,,8,2,50,2,,,,,,,,,321.15498449999996,,,,,,,,,,,,,,,,,,,,,,,,,,,,,,,,,,,,,,,,,,,,,,,,,,,,,,,321.14396639999995,321.15498449999996,321.64834750000045,321.64838059999965,321.66140280000036,321.8483306999997,321.8483666000002,321.8678679000004,321.8678679000004,321.8678679000004,322.36787340000046,322.36787340000046,323.11584800000037,['m'],[1.2395059000000401],[None],,,,,,,,,,,,,,,,,,,,,,,,,,,,,,,,,,,,,,,,,,,,,,,,,,,938793,001,2024-07-31_16h52.21.770,final,2024.1.5,None,2024-07-31 16h52.24.912822 +0530,
images/4n.tiff,images/4n.tiff,,,,,,,,,,,8,3,51,4,,,,,,,,,323.12770460000047,,,,,,,,,,,,,,,,,,,,,,,,,,,,,,,,,,,,,,,,,,,,,,,,,,,,,,,323.1176295000005,323.12770460000047,323.6208636000001,323.6208975999998,323.6341272999998,323.8208559000004,323.82089150000047,323.8445995000002,323.8445995000002,323.8445995000002,324.34043910000037,324.34043910000037,324.6224807999997,['z'],[0.7740939999994225],[None],,,,,,,,,,,,,,,,,,,,,,,,,,,,,,,,,,,,,,,,,,,,,,,,,,,938793,001,2024-07-31_16h52.21.770,final,2024.1.5,None,2024-07-31 16h52.24.912822 +0530,
images/18n.tiff,images/18n.tiff,,,,,,,,,,,8,4,52,5,,,,,,,,,324.6339435,,,,,,,,,,,,,,,,,,,,,,,,,,,,,,,,,,,,,,,,,,,,,,,,,,,,,,,324.62362870000015,324.6339435,325.1271219,325.1271558999997,325.1402645999997,325.3270484000004,325.3270801999997,325.34613549999995,325.34613549999995,325.34613549999995,325.8468144999997,325.8468144999997,326.2746751000004,['z'],[0.9204423999999563],[None],,,,,,,,,,,,,,,,,,,,,,,,,,,,,,,,,,,,,,,,,,,,,,,,,,,938793,001,2024-07-31_16h52.21.770,final,2024.1.5,None,2024-07-31 16h52.24.912822 +0530,
images/18n.tiff,images/18n.tiff,,,,,,,,,,,8,5,53,3,,,,,,,,,326.2866948000001,,,,,,,,,,,,,,,,,,,,,,,,,,,,,,,,,,,,,,,,,,,,,,,,,,,,,,,326.27580990000024,326.2866948000001,326.7798039999998,326.7798389999998,326.7932718000002,326.9797582000001,326.9797875000004,326.9971728999999,326.9971728999999,326.9971728999999,327.4994966000004,327.4994966000004,327.7943911000002,['z'],[0.7900761999999304],[None],,,,,,,,,,,,,,,,,,,,,,,,,,,,,,,,,,,,,,,,,,,,,,,,,,,938793,001,2024-07-31_16h52.21.770,final,2024.1.5,None,2024-07-31 16h52.24.912822 +0530,
images/18n.tiff,images/4n.tiff,,,,,,,,,,,9,0,54,2,,,,,,,,,327.8061706999997,,,,,,,,,,,,,,,,,,,,,,,,,,,,,,,,,,,,,,,,,,,,,,,,,,,,,,,327.7954695999997,327.8061706999997,328.2993918000002,328.29942589999973,328.31268550000004,328.4994013000005,328.49943710000025,328.5190961999997,328.5190961999997,328.5190961999997,329.0188755999998,329.0188755999998,329.63374060000024,['m'],[1.1083361000000878],[None],,,,,,,,,,,,,,,,,,,,,,,,,,,,,,,,,,,,,,,,,,,,,,,,,,,938793,001,2024-07-31_16h52.21.770,final,2024.1.5,None,2024-07-31 16h52.24.912822 +0530,
images/18n.tiff,images/18n.tiff,,,,,,,,,,,9,1,55,5,,,,,,,,,329.6454478000005,,,,,,,,,,,,,,,,,,,,,,,,,,,,,,,,,,,,,,,,,,,,,,,,,,,,,,,329.6348286000002,329.6454478000005,330.1387358000002,330.1387682000004,330.1520767000002,330.3384222000004,330.3384364000003,330.3548668000003,330.3548668000003,330.3548668000003,330.85830950000036,330.85830950000036,331.32651350000015,['z'],[0.9598347000001013],[None],,,,,,,,,,,,,,,,,,,,,,,,,,,,,,,,,,,,,,,,,,,,,,,,,,,938793,001,2024-07-31_16h52.21.770,final,2024.1.5,None,2024-07-31 16h52.24.912822 +0530,
images/4n.tiff,images/4n.tiff,,,,,,,,,,,9,2,56,1,,,,,,,,,331.3381707999997,,,,,,,,,,,,,,,,,,,,,,,,,,,,,,,,,,,,,,,,,,,,,,,,,,,,,,,331.3276652000004,331.3381707999997,331.83175910000045,331.83179589999963,331.84481979999964,332.03174620000027,332.03178370000023,332.0502975999998,332.0502975999998,332.0502975999998,332.55140480000045,332.55140480000045,333.4995048999999,['z'],[1.4413838999998916],[None],,,,,,,,,,,,,,,,,,,,,,,,,,,,,,,,,,,,,,,,,,,,,,,,,,,938793,001,2024-07-31_16h52.21.770,final,2024.1.5,None,2024-07-31 16h52.24.912822 +0530,
images/4n.tiff,images/4n.tiff,,,,,,,,,,,9,3,57,4,,,,,,,,,333.51099299999987,,,,,,,,,,,,,,,,,,,,,,,,,,,,,,,,,,,,,,,,,,,,,,,,,,,,,,,333.5010708,333.51099299999987,334.00422009999966,334.0042543999998,334.0172542999999,334.20415950000006,334.2041930000005,334.2258533000004,334.2258533000004,334.2258533000004,334.7237961000001,334.7237961000001,334.8857022000002,['z'],[0.6575472999993508],[None],,,,,,,,,,,,,,,,,,,,,,,,,,,,,,,,,,,,,,,,,,,,,,,,,,,938793,001,2024-07-31_16h52.21.770,final,2024.1.5,None,2024-07-31 16h52.24.912822 +0530,
images/4n.tiff,images/18n.tiff,,,,,,,,,,,9,4,58,0,,,,,,,,,334.8969986000002,,,,,,,,,,,,,,,,,,,,,,,,,,,,,,,,,,,,,,,,,,,,,,,,,,,,,,,334.8868429000004,334.8969986000002,335.3902665000005,335.3902877999999,335.40359119999994,335.5904214000002,335.5904701999998,335.61122820000037,335.61122820000037,335.61122820000037,336.1101306999999,336.1101306999999,336.5517393,['m'],[0.9362308999998277],[None],,,,,,,,,,,,,,,,,,,,,,,,,,,,,,,,,,,,,,,,,,,,,,,,,,,938793,001,2024-07-31_16h52.21.770,final,2024.1.5,None,2024-07-31 16h52.24.912822 +0530,
images/18n.tiff,images/18n.tiff,,,,,,,,,,,9,5,59,3,,,,,,,,,336.5633753000002,,,,,,,,,,,,,,,,,,,,,,,,,,,,,,,,,,,,,,,,,,,,,,,,,,,,,,,336.5528639000004,336.5633753000002,337.05640459999995,337.05643839999993,337.0697003000005,337.2563514000003,337.25638419999996,337.27603720000025,337.27603720000025,337.27603720000025,337.77607290000014,337.77607290000014,338.05707770000026,['z'],[0.7674268000000666],[None],,,,,,,,,,,,,,,,,,,,,,,,,,,,,,,,,,,,,,,,,,,,,,,,,,,938793,001,2024-07-31_16h52.21.770,final,2024.1.5,None,2024-07-31 16h52.24.912822 +0530,
,,,,,,,,,,,,,,,,,,,,,,,,,,,,,,,,,,,,,,,,,,,,,,,,,,,,,,,,,,,,,,,,,,,,,,,,,,,,,,,,,,,,,,,,,,,,,,,338.05799110000044,338.06950659999984,338.06950659999984,466.8147299000002,space,128.74105260000033,None,,,,,,,,,,,,,,,,,,,,,,,,,,,,,,,,,,,,,,,,,,,,938793,001,2024-07-31_16h52.21.770,final,2024.1.5,None,2024-07-31 16h52.24.912822 +0530,
images/5n.tiff,images/10n.tiff,,,,,,,,,,,,,,,0,0,0,3,,,,,466.8282153,,,,,,,,,,,,,,,,,,,,,,,,,,,,,,,,,,,,,,,,,,,,,,,,,,,,,,,,,,,,,,,,,,,,,,,,,,,,,,466.82624699999997,466.8282153,467.32039129999976,467.32042790000014,467.3335975,467.5202959999997,467.5203309999997,467.5442926000005,467.5442926000005,467.5442926000005,468.04010130000006,468.04010130000006,469.0810811000001,['m'],[1.531158200000391],[None],,,,,,,,,,,,,,,,,,,,,,,,,,,,938793,001,2024-07-31_16h52.21.770,final,2024.1.5,None,2024-07-31 16h52.24.912822 +0530,
images/10n.tiff,images/10n.tiff,,,,,,,,,,,,,,,0,1,1,11,,,,,469.0927529999999,,,,,,,,,,,,,,,,,,,,,,,,,,,,,,,,,,,,,,,,,,,,,,,,,,,,,,,,,,,,,,,,,,,,,,,,,,,,,,469.08246959999997,469.0927529999999,469.5862728000002,469.5863102000003,469.59943790000034,469.7862567000002,469.78629230000024,469.80518010000014,469.80518010000014,469.80518010000014,470.3058699000003,470.3058699000003,470.7065631000005,['z'],[0.8936358999999356],[None],,,,,,,,,,,,,,,,,,,,,,,,,,,,938793,001,2024-07-31_16h52.21.770,final,2024.1.5,None,2024-07-31 16h52.24.912822 +0530,
images/18n.tiff,images/4n.tiff,,,,,,,,,,,,,,,0,2,2,5,,,,,470.7190177000002,,,,,,,,,,,,,,,,,,,,,,,,,,,,,,,,,,,,,,,,,,,,,,,,,,,,,,,,,,,,,,,,,,,,,,,,,,,,,,470.70714339999995,470.7190177000002,471.21255199999996,471.2125967000002,471.2257036000001,471.4122272000004,471.4122459,471.4332045000001,471.4332045000001,471.4332045000001,471.9320392999998,471.9320392999998,472.2928957000004,['m'],[0.8578961000002892],[None],,,,,,,,,,,,,,,,,,,,,,,,,,,,938793,001,2024-07-31_16h52.21.770,final,2024.1.5,None,2024-07-31 16h52.24.912822 +0530,
images/5n.tiff,images/5n.tiff,,,,,,,,,,,,,,,0,3,3,2,,,,,472.30527210000037,,,,,,,,,,,,,,,,,,,,,,,,,,,,,,,,,,,,,,,,,,,,,,,,,,,,,,,,,,,,,,,,,,,,,,,,,,,,,,472.29354429999967,472.30527210000037,472.79873880000014,472.7987748000005,472.81180349999977,472.99872680000044,472.9987635999996,473.02081050000015,473.02081050000015,473.02081050000015,473.5181273999997,473.5181273999997,473.7339020999998,['z'],[0.7108806999995068],[None],,,,,,,,,,,,,,,,,,,,,,,,,,,,938793,001,2024-07-31_16h52.21.770,final,2024.1.5,None,2024-07-31 16h52.24.912822 +0530,
images/10n.tiff,images/10n.tiff,,,,,,,,,,,,,,,0,4,4,6,,,,,473.7447480000001,,,,,,,,,,,,,,,,,,,,,,,,,,,,,,,,,,,,,,,,,,,,,,,,,,,,,,,,,,,,,,,,,,,,,,,,,,,,,,473.7348823000002,473.7447480000001,474.23823079999966,474.23826740000004,474.25130590000026,474.43809450000026,474.43813000000046,474.4565072000005,474.4565072000005,474.4565072000005,474.95774189999975,474.95774189999975,477.22525640000003,['z'],[2.7626077000004443],[None],,,,,,,,,,,,,,,,,,,,,,,,,,,,938793,001,2024-07-31_16h52.21.770,final,2024.1.5,None,2024-07-31 16h52.24.912822 +0530,
images/18n.tiff,images/18n.tiff,,,,,,,,,,,,,,,0,5,5,4,,,,,477.23698090000016,,,,,,,,,,,,,,,,,,,,,,,,,,,,,,,,,,,,,,,,,,,,,,,,,,,,,,,,,,,,,,,,,,,,,,,,,,,,,,477.2260795000002,477.23698090000016,477.7300941000003,477.73012819999985,477.7434052999997,477.93012009999984,477.9301566000004,477.94969089999995,477.94969089999995,477.94969089999995,478.44975330000034,478.44975330000034,478.6644650999997,['z'],[0.7090846000000965],[None],,,,,,,,,,,,,,,,,,,,,,,,,,,,938793,001,2024-07-31_16h52.21.770,final,2024.1.5,None,2024-07-31 16h52.24.912822 +0530,
images/18n.tiff,images/18n.tiff,,,,,,,,,,,,,,,0,6,6,9,,,,,478.6764161000001,,,,,,,,,,,,,,,,,,,,,,,,,,,,,,,,,,,,,,,,,,,,,,,,,,,,,,,,,,,,,,,,,,,,,,,,,,,,,,478.66540820000046,478.6764161000001,479.16991940000025,479.1699599000003,479.18302120000044,479.36996030000046,479.36999990000004,479.38790040000004,479.38790040000004,479.38790040000004,479.8892458999999,479.8892458999999,480.2104465000002,['z'],[0.814962800000103],[None],,,,,,,,,,,,,,,,,,,,,,,,,,,,938793,001,2024-07-31_16h52.21.770,final,2024.1.5,None,2024-07-31 16h52.24.912822 +0530,
images/5n.tiff,images/5n.tiff,,,,,,,,,,,,,,,0,7,7,10,,,,,480.22270839999965,,,,,,,,,,,,,,,,,,,,,,,,,,,,,,,,,,,,,,,,,,,,,,,,,,,,,,,,,,,,,,,,,,,,,,,,,,,,,,480.21185179999975,480.22270839999965,480.7160807999999,480.71611810000013,480.72922350000044,480.9160670000001,480.9161016999997,480.9338994999998,480.9338994999998,480.9338994999998,481.4355198000003,481.4355198000003,481.6238481999999,['z'],[0.6855255000000398],[None],,,,,,,,,,,,,,,,,,,,,,,,,,,,938793,001,2024-07-31_16h52.21.770,final,2024.1.5,None,2024-07-31 16h52.24.912822 +0530,
images/4n.tiff,images/4n.tiff,,,,,,,,,,,,,,,0,8,8,8,,,,,481.6354416000004,,,,,,,,,,,,,,,,,,,,,,,,,,,,,,,,,,,,,,,,,,,,,,,,,,,,,,,,,,,,,,,,,,,,,,,,,,,,,,481.6248002000002,481.6354416000004,482.12875020000047,482.1287849999999,482.14201219999995,482.32866120000017,482.3286951,482.3469350000005,482.3469350000005,482.3469350000005,482.8482906999998,482.8482906999998,483.5828934000001,['z'],[1.2241066999995383],[None],,,,,,,,,,,,,,,,,,,,,,,,,,,,938793,001,2024-07-31_16h52.21.770,final,2024.1.5,None,2024-07-31 16h52.24.912822 +0530,
images/4n.tiff,images/18n.tiff,,,,,,,,,,,,,,,0,9,9,1,,,,,483.5948021000004,,,,,,,,,,,,,,,,,,,,,,,,,,,,,,,,,,,,,,,,,,,,,,,,,,,,,,,,,,,,,,,,,,,,,,,,,,,,,,483.5840656999999,483.5948021000004,484.0882308,484.0882676000001,484.10146390000045,484.2880388000003,484.2880733000002,484.30690830000003,484.30690830000003,484.30690830000003,484.80759409999973,484.80759409999973,485.502246,['m'],[1.1844947999998112],[None],,,,,,,,,,,,,,,,,,,,,,,,,,,,938793,001,2024-07-31_16h52.21.770,final,2024.1.5,None,2024-07-31 16h52.24.912822 +0530,
images/10n.tiff,images/5n.tiff,,,,,,,,,,,,,,,0,10,10,7,,,,,485.5141824000002,,,,,,,,,,,,,,,,,,,,,,,,,,,,,,,,,,,,,,,,,,,,,,,,,,,,,,,,,,,,,,,,,,,,,,,,,,,,,,485.50332179999987,485.5141824000002,486.00744870000017,486.0074826,486.0207668000003,486.2073897,486.2074229,486.226447,486.226447,486.226447,486.7269993,486.7269993,487.3149174,['m'],[1.080852799999775],[None],,,,,,,,,,,,,,,,,,,,,,,,,,,,938793,001,2024-07-31_16h52.21.770,final,2024.1.5,None,2024-07-31 16h52.24.912822 +0530,
images/4n.tiff,images/4n.tiff,,,,,,,,,,,,,,,0,11,11,0,,,,,487.32691220000015,,,,,,,,,,,,,,,,,,,,,,,,,,,,,,,,,,,,,,,,,,,,,,,,,,,,,,,,,,,,,,,,,,,,,,,,,,,,,,487.31581929999993,487.32691220000015,487.82022789999974,487.8202615,487.8334464999998,488.02027240000007,488.02030620000005,488.0403913,488.0403913,488.0403913,488.53995620000023,488.53995620000023,491.4205314999999,['m'],[3.3702934000002642],[None],,,,,,,,,,,,,,,,,,,,,,,,,,,,938793,001,2024-07-31_16h52.21.770,final,2024.1.5,None,2024-07-31 16h52.24.912822 +0530,
images/4n.tiff,images/4n.tiff,,,,,,,,,,,,,,,1,0,12,0,,,,,491.4322395999998,,,,,,,,,,,,,,,,,,,,,,,,,,,,,,,,,,,,,,,,,,,,,,,,,,,,,,,,,,,,,,,,,,,,,,,,,,,,,,491.42161430000033,491.4322395999998,491.9256307000005,491.92566950000037,491.93883240000014,492.1255166000001,492.12555109999994,492.1439203,492.1439203,492.1439203,492.64512920000016,492.64512920000016,493.4334557000002,['m'],[1.283268500000304],[None],,,,,,,,,,,,,,,,,,,,,,,,,,,,938793,001,2024-07-31_16h52.21.770,final,2024.1.5,None,2024-07-31 16h52.24.912822 +0530,
images/4n.tiff,images/4n.tiff,,,,,,,,,,,,,,,1,1,13,8,,,,,493.44485820000045,,,,,,,,,,,,,,,,,,,,,,,,,,,,,,,,,,,,,,,,,,,,,,,,,,,,,,,,,,,,,,,,,,,,,,,,,,,,,,493.43451300000015,493.44485820000045,493.9386015,493.93866080000043,493.95144210000035,494.1383133999998,494.13834899999983,494.1561263000003,494.1561263000003,494.1561263000003,494.65789120000045,494.65789120000045,495.1529737000001,['z'],[0.9912954000001264],[None],,,,,,,,,,,,,,,,,,,,,,,,,,,,938793,001,2024-07-31_16h52.21.770,final,2024.1.5,None,2024-07-31 16h52.24.912822 +0530,
images/18n.tiff,images/18n.tiff,,,,,,,,,,,,,,,1,2,14,9,,,,,495.1643159000005,,,,,,,,,,,,,,,,,,,,,,,,,,,,,,,,,,,,,,,,,,,,,,,,,,,,,,,,,,,,,,,,,,,,,,,,,,,,,,495.1538639999999,495.1643159000005,495.65786149999985,495.6578978999996,495.670983,495.8576750000002,495.85770890000003,495.8772571999998,495.8772571999998,495.8772571999998,496.37743370000044,496.37743370000044,496.8858876000004,['z'],[1.0057420000002821],[None],,,,,,,,,,,,,,,,,,,,,,,,,,,,938793,001,2024-07-31_16h52.21.770,final,2024.1.5,None,2024-07-31 16h52.24.912822 +0530,
images/18n.tiff,images/18n.tiff,,,,,,,,,,,,,,,1,3,15,4,,,,,496.8971308,,,,,,,,,,,,,,,,,,,,,,,,,,,,,,,,,,,,,,,,,,,,,,,,,,,,,,,,,,,,,,,,,,,,,,,,,,,,,,496.8867594000003,496.8971308,497.3905182999997,497.39055240000016,497.40356539999993,497.590416,497.59044950000043,497.61098459999994,497.61098459999994,497.61098459999994,498.1101233999998,498.1101233999998,498.5247280000003,['z'],[0.9043245999991996],[None],,,,,,,,,,,,,,,,,,,,,,,,,,,,938793,001,2024-07-31_16h52.21.770,final,2024.1.5,None,2024-07-31 16h52.24.912822 +0530,
images/5n.tiff,images/5n.tiff,,,,,,,,,,,,,,,1,4,16,2,,,,,498.53659719999996,,,,,,,,,,,,,,,,,,,,,,,,,,,,,,,,,,,,,,,,,,,,,,,,,,,,,,,,,,,,,,,,,,,,,,,,,,,,,,498.5255992000002,498.53659719999996,499.0299759999998,499.03000989999964,499.0430600999998,499.2300511000003,499.23008759999993,499.2481020000005,499.2481020000005,499.2481020000005,499.74963519999983,499.74963519999983,500.0311681000003,['z'],[0.7789362000003166],[None],,,,,,,,,,,,,,,,,,,,,,,,,,,,938793,001,2024-07-31_16h52.21.770,final,2024.1.5,None,2024-07-31 16h52.24.912822 +0530,
images/5n.tiff,images/5n.tiff,,,,,,,,,,,,,,,1,5,17,10,,,,,500.04262910000034,,,,,,,,,,,,,,,,,,,,,,,,,,,,,,,,,,,,,,,,,,,,,,,,,,,,,,,,,,,,,,,,,,,,,,,,,,,,,,500.0322403,500.04262910000034,500.5361737000003,500.5362075000003,500.54930309999963,500.73614799999996,500.73620409999967,500.7555760000005,500.7555760000005,500.7555760000005,501.25567709999996,501.25567709999996,501.45705720000024,['z'],[0.6952955000006114],[None],,,,,,,,,,,,,,,,,,,,,,,,,,,,938793,001,2024-07-31_16h52.21.770,final,2024.1.5,None,2024-07-31 16h52.24.912822 +0530,
images/18n.tiff,images/4n.tiff,,,,,,,,,,,,,,,1,6,18,5,,,,,501.4689454999998,,,,,,,,,,,,,,,,,,,,,,,,,,,,,,,,,,,,,,,,,,,,,,,,,,,,,,,,,,,,,,,,,,,,,,,,,,,,,,501.4581353000003,501.4689454999998,501.9621780999996,501.9622148999997,501.9754794999999,502.1621034,502.1621379999997,502.1818512,502.1818512,502.1818512,502.6817731000001,502.6817731000001,503.03001099999983,['m'],[0.8450395999998364],[None],,,,,,,,,,,,,,,,,,,,,,,,,,,,938793,001,2024-07-31_16h52.21.770,final,2024.1.5,None,2024-07-31 16h52.24.912822 +0530,
images/10n.tiff,images/10n.tiff,,,,,,,,,,,,,,,1,7,19,6,,,,,503.0416685,,,,,,,,,,,,,,,,,,,,,,,,,,,,,,,,,,,,,,,,,,,,,,,,,,,,,,,,,,,,,,,,,,,,,,,,,,,,,,503.0313526,503.0416685,503.5351330000003,503.5351685000005,503.5483529000003,503.7351754000001,503.73521059999985,503.7525920999997,503.7525920999997,503.7525920999997,504.2548426000003,504.2548426000003,504.51021539999965,['z'],[0.7547647000001234],[None],,,,,,,,,,,,,,,,,,,,,,,,,,,,938793,001,2024-07-31_16h52.21.770,final,2024.1.5,None,2024-07-31 16h52.24.912822 +0530,
images/10n.tiff,images/10n.tiff,,,,,,,,,,,,,,,1,8,20,11,,,,,504.52120319999995,,,,,,,,,,,,,,,,,,,,,,,,,,,,,,,,,,,,,,,,,,,,,,,,,,,,,,,,,,,,,,,,,,,,,,,,,,,,,,504.51117390000036,504.52120319999995,505.0146543000001,505.01472550000017,505.02776259999973,505.2145489000004,505.2145842,505.2359250999998,505.2359250999998,505.2359250999998,505.73419209999975,505.73419209999975,505.8022974000005,['z'],[0.5589888000004066],[None],,,,,,,,,,,,,,,,,,,,,,,,,,,,938793,001,2024-07-31_16h52.21.770,final,2024.1.5,None,2024-07-31 16h52.24.912822 +0530,
images/10n.tiff,images/5n.tiff,,,,,,,,,,,,,,,1,9,21,7,,,,,505.81425539999964,,,,,,,,,,,,,,,,,,,,,,,,,,,,,,,,,,,,,,,,,,,,,,,,,,,,,,,,,,,,,,,,,,,,,,,,,,,,,,505.8032425000001,505.81425539999964,506.30762740000046,506.3076610999997,506.3207140000004,506.50754570000026,506.5075797999998,506.5309881000003,506.5309881000003,506.5309881000003,507.0271580999997,507.0271580999997,507.57490400000006,['m'],[1.0319423999999344],[None],,,,,,,,,,,,,,,,,,,,,,,,,,,,938793,001,2024-07-31_16h52.21.770,final,2024.1.5,None,2024-07-31 16h52.24.912822 +0530,
images/4n.tiff,images/18n.tiff,,,,,,,,,,,,,,,1,10,22,1,,,,,507.5869164000005,,,,,,,,,,,,,,,,,,,,,,,,,,,,,,,,,,,,,,,,,,,,,,,,,,,,,,,,,,,,,,,,,,,,,,,,,,,,,,507.57583690000047,507.5869164000005,508.0804371000004,508.0804869000003,508.0935830999997,508.2803990000002,508.28043739999976,508.29946889999974,508.29946889999974,508.29946889999974,508.7997664000004,508.7997664000004,509.12081899999976,['m'],[0.8075431000006574],[None],,,,,,,,,,,,,,,,,,,,,,,,,,,,938793,001,2024-07-31_16h52.21.770,final,2024.1.5,None,2024-07-31 16h52.24.912822 +0530,
images/5n.tiff,images/10n.tiff,,,,,,,,,,,,,,,1,11,23,3,,,,,509.1331379000003,,,,,,,,,,,,,,,,,,,,,,,,,,,,,,,,,,,,,,,,,,,,,,,,,,,,,,,,,,,,,,,,,,,,,,,,,,,,,,509.12194869999985,509.1331379000003,509.62642400000004,509.6264594000004,509.6394857000005,509.8264627999997,509.82650620000004,509.84738319999997,509.84738319999997,509.84738319999997,510.34621030000017,510.34621030000017,510.60077439999986,['m'],[0.7394004999996469],[None],,,,,,,,,,,,,,,,,,,,,,,,,,,,938793,001,2024-07-31_16h52.21.770,final,2024.1.5,None,2024-07-31 16h52.24.912822 +0530,
images/4n.tiff,images/4n.tiff,,,,,,,,,,,,,,,2,0,24,0,,,,,510.61273809999966,,,,,,,,,,,,,,,,,,,,,,,,,,,,,,,,,,,,,,,,,,,,,,,,,,,,,,,,,,,,,,,,,,,,,,,,,,,,,,510.60183059999963,510.61273809999966,511.1057154,511.1057283,511.1188884000003,511.3062097000002,511.30624609999995,511.3255693000001,511.3255693000001,511.3255693000001,511.8256074000001,511.8256074000001,512.3741296999997,['z'],[1.0449827999991612],[None],,,,,,,,,,,,,,,,,,,,,,,,,,,,938793,001,2024-07-31_16h52.21.770,final,2024.1.5,None,2024-07-31 16h52.24.912822 +0530,
images/10n.tiff,images/10n.tiff,,,,,,,,,,,,,,,2,1,25,6,,,,,512.3852478999997,,,,,,,,,,,,,,,,,,,,,,,,,,,,,,,,,,,,,,,,,,,,,,,,,,,,,,,,,,,,,,,,,,,,,,,,,,,,,,512.3750059000004,512.3852478999997,512.8787668000004,512.8788000000004,512.8919740000001,513.0785945999996,513.0786306,513.0985977999999,513.0985977999999,513.0985977999999,513.5981590000001,513.5981590000001,513.7333256000002,['z'],[0.6239708000002793],[None],,,,,,,,,,,,,,,,,,,,,,,,,,,,938793,001,2024-07-31_16h52.21.770,final,2024.1.5,None,2024-07-31 16h52.24.912822 +0530,
