face_images_1,face_images_2,pos_1,pos_2,trials_30.thisRepN,trials_30.thisTrialN,trials_30.thisN,trials_30.thisIndex,main_1.thisRepN,main_1.thisTrialN,main_1.thisN,main_1.thisIndex,main_2.thisRepN,main_2.thisTrialN,main_2.thisN,main_2.thisIndex,main_3.thisRepN,main_3.thisTrialN,main_3.thisN,main_3.thisIndex,main_4.thisRepN,main_4.thisTrialN,main_4.thisN,main_4.thisIndex,thisRow.t,notes,Instruction.started,text_Welcome.started,key_space.started,Instruction.stopped,key_space.keys,key_space.rt,key_space.duration,gap.started,text_gap.started,gap.stopped,plus.started,plus__.started,plus.stopped,trial_30.started,image_1.started,image_2.started,trial_resp.started,image_1.stopped,image_2.stopped,trial_30.stopped,trial_resp.keys,trial_resp.rt,trial_resp.duration,text_gap.stopped,plus__.stopped,Instruction_1.started,text_instruct.started,space_resp.started,Instruction_1.stopped,space_resp.keys,space_resp.rt,space_resp.duration,gap_1.started,gap__1.started,gap__1.stopped,gap_1.stopped,plus_1.started,plus__1.started,plus__1.stopped,plus_1.stopped,Block_1.started,image_1_set_1.started,image_2_set_1.started,resp_1.started,image_1_set_1.stopped,image_2_set_1.stopped,Block_1.stopped,resp_1.keys,resp_1.rt,resp_1.duration,Instuct_2.started,text_block2.started,space_resp_2.started,Instuct_2.stopped,space_resp_2.keys,space_resp_2.rt,space_resp_2.duration,gap_2.started,gap__2.started,gap__2.stopped,gap_2.stopped,plus_2.started,plus__2.started,plus__2.stopped,plus_2.stopped,Block_2.started,image_1_set_2.started,image_2_set_2.started,resp_2.started,image_1_set_2.stopped,image_2_set_2.stopped,Block_2.stopped,resp_2.keys,resp_2.rt,resp_2.duration,Instruct_3.started,text_block3.started,space_resp_3.started,Instruct_3.stopped,space_resp_3.keys,space_resp_3.rt,space_resp_3.duration,gap_3.started,gap__3.started,gap__3.stopped,gap_3.stopped,plus_3.started,plus__3.started,plus__3.stopped,plus_3.stopped,Block_3.started,image_1_set_3.started,image_2_set_3.started,resp_3.started,image_1_set_3.stopped,image_2_set_3.stopped,Block_3.stopped,resp_3.keys,resp_3.rt,resp_3.duration,Instruct_4.started,text_block4.started,space_resp_4.started,Instruct_4.stopped,space_resp_4.keys,space_resp_4.rt,space_resp_4.duration,gap_4.started,gap__4.started,gap_4.stopped,plus_4.started,plus___4.started,plus_4.stopped,Block_4.started,image_1_set_4.started,image_2_set_4.started,resp_4.started,image_1_set_4.stopped,image_2_set_4.stopped,Block_4.stopped,resp_4.keys,resp_4.rt,resp_4.duration,gap__4.stopped,plus___4.stopped,end.started,text_3.started,end.stopped,participant,session,date,expName,psychopyVersion,frameRate,expStart,
,,,,,,,,,,,,,,,,,,,,,,,,,,0.0023595999999770356,0.00438769999999522,0.00438769999999522,138.60549859999998,['space'],[138.58609],[None],,,,,,,,,,,,,,,,,,,,,,,,,,,,,,,,,,,,,,,,,,,,,,,,,,,,,,,,,,,,,,,,,,,,,,,,,,,,,,,,,,,,,,,,,,,,,,,,,,,,,,,,,,,,,,,,,,,,,,,,,,320307,001,2024-07-30_13h16.21.027,final,2024.1.5,None,2024-07-30 13h16.25.135378 +0530,
images/18n.tiff,images/18n.tiff,"(0.3, 0.2)","(-0.3, 0.2)",0,0,0,15,,,,,,,,,,,,,,,,,138.62143939999993,,,,,,,,,138.61898159999993,138.62143939999993,139.12037879999997,139.12041619999997,139.13678469999996,139.32035319999994,139.32039089999995,139.376461,139.376461,139.376461,139.88659820000004,139.88659820000004,142.78746010000003,['z'],[3.397905499999979],[None],,,,,,,,,,,,,,,,,,,,,,,,,,,,,,,,,,,,,,,,,,,,,,,,,,,,,,,,,,,,,,,,,,,,,,,,,,,,,,,,,,,,,,,,,,,,,,,,,,,,,,,,,,320307,001,2024-07-30_13h16.21.027,final,2024.1.5,None,2024-07-30 13h16.25.135378 +0530,
images/5n.tiff,images/4n.tiff,"(0.3, 0.2)","(-0.3, 0.2)",0,1,1,26,,,,,,,,,,,,,,,,,142.80219359999995,,,,,,,,,142.78943599999997,142.80219359999995,143.28641079999994,143.28645720000003,143.30208439999996,143.48628379999997,143.4863333,143.50931629999997,143.50931629999997,143.50931629999997,144.01859869999993,144.01859869999993,145.6200204,['m'],[2.105111299999976],[None],143.30208439999996,143.50931629999997,,,,,,,,,,,,,,,,,,,,,,,,,,,,,,,,,,,,,,,,,,,,,,,,,,,,,,,,,,,,,,,,,,,,,,,,,,,,,,,,,,,,,,,,,,,,,,,,,,,,,,,,320307,001,2024-07-30_13h16.21.027,final,2024.1.5,None,2024-07-30 13h16.25.135378 +0530,
images/4n.tiff,images/10n.tiff,"(0.3, 0.2)","(-0.3, 0.2)",0,2,2,1,,,,,,,,,,,,,,,,,145.63474000000002,,,,,,,,,145.62125469999995,145.63474000000002,146.11877809999993,146.11882459999998,146.13455879999998,146.31874929999998,146.31880069999994,146.34592059999994,146.34592059999994,146.34592059999994,146.85094839999994,146.85094839999994,148.31929399999996,['m'],[1.9636401999999862],[None],146.13455879999998,146.34592059999994,,,,,,,,,,,,,,,,,,,,,,,,,,,,,,,,,,,,,,,,,,,,,,,,,,,,,,,,,,,,,,,,,,,,,,,,,,,,,,,,,,,,,,,,,,,,,,,,,,,,,,,,320307,001,2024-07-30_13h16.21.027,final,2024.1.5,None,2024-07-30 13h16.25.135378 +0530,
images/5n.tiff,images/4n.tiff,"(0.3, 0.2)","(-0.3, 0.2)",0,3,3,4,,,,,,,,,,,,,,,,,148.33384089999998,,,,,,,,,148.32051589999998,148.33384089999998,148.81797090000003,148.8180203,148.83368619999993,149.01788800000003,149.01793730000003,149.0409143,149.0409143,149.0409143,149.55004379999997,149.55004379999997,151.0181243,['m'],[1.965341599999988],[None],148.83368619999993,149.0409143,,,,,,,,,,,,,,,,,,,,,,,,,,,,,,,,,,,,,,,,,,,,,,,,,,,,,,,,,,,,,,,,,,,,,,,,,,,,,,,,,,,,,,,,,,,,,,,,,,,,,,,,320307,001,2024-07-30_13h16.21.027,final,2024.1.5,None,2024-07-30 13h16.25.135378 +0530,
images/5n.tiff,images/10n.tiff,"(0.3, 0.2)","(-0.3, 0.2)",0,4,4,20,,,,,,,,,,,,,,,,,151.03294269999998,,,,,,,,,151.01953209999994,151.03294269999998,151.51632869999997,151.51634429999996,151.53265249999998,151.71705679999997,151.71717159999997,151.74136219999997,151.74136219999997,151.74136219999997,152.24915489999995,152.24915489999995,163.36441410000003,['m'],[11.616839300000038],[None],151.53265249999998,151.74136219999997,,,,,,,,,,,,,,,,,,,,,,,,,,,,,,,,,,,,,,,,,,,,,,,,,,,,,,,,,,,,,,,,,,,,,,,,,,,,,,,,,,,,,,,,,,,,,,,,,,,,,,,,320307,001,2024-07-30_13h16.21.027,final,2024.1.5,None,2024-07-30 13h16.25.135378 +0530,
images/18n.tiff,images/10n.tiff,"(0.3, 0.2)","(-0.3, 0.2)",0,5,5,14,,,,,,,,,,,,,,,,,163.37886050000003,,,,,,,,,163.36577489999996,163.37886050000003,163.86296090000002,163.86300109999996,163.87870489999995,164.0629452,164.0629915,164.1014763,164.1014763,164.1014763,164.61181289999996,164.61181289999996,166.07859159999992,['m'],[1.9763766999999461],[None],163.87870489999995,164.1014763,,,,,,,,,,,,,,,,,,,,,,,,,,,,,,,,,,,,,,,,,,,,,,,,,,,,,,,,,,,,,,,,,,,,,,,,,,,,,,,,,,,,,,,,,,,,,,,,,,,,,,,,320307,001,2024-07-30_13h16.21.027,final,2024.1.5,None,2024-07-30 13h16.25.135378 +0530,
images/4n.tiff,images/10n.tiff,"(0.3, 0.2)","(-0.3, 0.2)",0,6,6,17,,,,,,,,,,,,,,,,,166.09430419999995,,,,,,,,,166.0788594,166.09430419999995,166.57887349999993,166.5789239,166.59441099999998,166.77882459999995,166.77887459999994,166.8027745,166.8027745,166.8027745,167.31095009999996,167.31095009999996,168.67900879999996,['m'],[1.8593107000000373],[None],166.59441099999998,166.8027745,,,,,,,,,,,,,,,,,,,,,,,,,,,,,,,,,,,,,,,,,,,,,,,,,,,,,,,,,,,,,,,,,,,,,,,,,,,,,,,,,,,,,,,,,,,,,,,,,,,,,,,,320307,001,2024-07-30_13h16.21.027,final,2024.1.5,None,2024-07-30 13h16.25.135378 +0530,
images/18n.tiff,images/10n.tiff,"(0.3, 0.2)","(-0.3, 0.2)",0,7,7,28,,,,,,,,,,,,,,,,,168.69372189999996,,,,,,,,,168.68024610000003,168.69372189999996,169.17802999999998,169.17807509999994,169.1935845,169.37764090000002,169.37768709999995,169.39993650000002,169.39993650000002,169.39993650000002,169.91009100000002,169.91009100000002,171.16165759999996,['m'],[1.7496906999999737],[None],169.1935845,169.39993650000002,,,,,,,,,,,,,,,,,,,,,,,,,,,,,,,,,,,,,,,,,,,,,,,,,,,,,,,,,,,,,,,,,,,,,,,,,,,,,,,,,,,,,,,,,,,,,,,,,,,,,,,,320307,001,2024-07-30_13h16.21.027,final,2024.1.5,None,2024-07-30 13h16.25.135378 +0530,
images/5n.tiff,images/18n.tiff,"(0.3, 0.2)","(-0.3, 0.2)",0,8,8,21,,,,,,,,,,,,,,,,,171.17635879999995,,,,,,,,,171.16296429999994,171.17635879999995,171.66044759999994,171.66049449999997,171.67617509999997,171.8604512,171.86049669999994,171.88308690000002,171.88308690000002,171.88308690000002,172.39253560000003,172.39253560000003,173.49419970000002,['m'],[1.6024527999999236],[None],171.67617509999997,171.88308690000002,,,,,,,,,,,,,,,,,,,,,,,,,,,,,,,,,,,,,,,,,,,,,,,,,,,,,,,,,,,,,,,,,,,,,,,,,,,,,,,,,,,,,,,,,,,,,,,,,,,,,,,,320307,001,2024-07-30_13h16.21.027,final,2024.1.5,None,2024-07-30 13h16.25.135378 +0530,
images/10n.tiff,images/10n.tiff,"(0.3, 0.2)","(-0.3, 0.2)",0,9,9,24,,,,,,,,,,,,,,,,,173.5089344,,,,,,,,,173.49541919999996,173.5089344,173.99294749999996,173.99299330000002,174.0087699,174.19183789999994,174.19184779999995,174.20941739999995,174.20941739999995,174.20941739999995,174.70852080000003,174.70852080000003,175.82667039999995,['z'],[1.604154900000026],[None],174.0087699,174.20941739999995,,,,,,,,,,,,,,,,,,,,,,,,,,,,,,,,,,,,,,,,,,,,,,,,,,,,,,,,,,,,,,,,,,,,,,,,,,,,,,,,,,,,,,,,,,,,,,,,,,,,,,,,320307,001,2024-07-30_13h16.21.027,final,2024.1.5,None,2024-07-30 13h16.25.135378 +0530,
images/10n.tiff,images/4n.tiff,"(0.3, 0.2)","(-0.3, 0.2)",0,10,10,8,,,,,,,,,,,,,,,,,175.84137329999993,,,,,,,,,175.82793079999993,175.84137329999993,176.32563409999995,176.32568250000003,176.34117499999996,176.52602410000003,176.5260738,176.54579829999994,176.54579829999994,176.54579829999994,177.05773059999996,177.05773059999996,178.15911160000002,['m'],[1.5960956000000124],[None],176.34117499999996,176.54579829999994,,,,,,,,,,,,,,,,,,,,,,,,,,,,,,,,,,,,,,,,,,,,,,,,,,,,,,,,,,,,,,,,,,,,,,,,,,,,,,,,,,,,,,,,,,,,,,,,,,,,,,,,320307,001,2024-07-30_13h16.21.027,final,2024.1.5,None,2024-07-30 13h16.25.135378 +0530,
images/18n.tiff,images/4n.tiff,"(0.3, 0.2)","(-0.3, 0.2)",0,11,11,12,,,,,,,,,,,,,,,,,178.17404959999993,,,,,,,,,178.16033999999996,178.17404959999993,178.65817599999997,178.65822229999998,178.67382129999993,178.8581942,178.85824129999997,178.8806169,178.8806169,178.8806169,179.39020750000003,179.39020750000003,182.8742001,['m'],[3.981509800000026],[None],178.67382129999993,178.8806169,,,,,,,,,,,,,,,,,,,,,,,,,,,,,,,,,,,,,,,,,,,,,,,,,,,,,,,,,,,,,,,,,,,,,,,,,,,,,,,,,,,,,,,,,,,,,,,,,,,,,,,,320307,001,2024-07-30_13h16.21.027,final,2024.1.5,None,2024-07-30 13h16.25.135378 +0530,
images/18n.tiff,images/4n.tiff,"(0.3, 0.2)","(-0.3, 0.2)",0,12,12,29,,,,,,,,,,,,,,,,,182.88903379999994,,,,,,,,,182.87566269999996,182.88903379999994,183.3725559,183.37257759999994,183.38875179999997,183.5723013,183.57231099999996,183.58977679999992,183.58977679999992,183.58977679999992,184.0886817,184.0886817,186.97310620000002,['z'],[3.368394799999919],[None],183.38875179999997,183.58977679999992,,,,,,,,,,,,,,,,,,,,,,,,,,,,,,,,,,,,,,,,,,,,,,,,,,,,,,,,,,,,,,,,,,,,,,,,,,,,,,,,,,,,,,,,,,,,,,,,,,,,,,,,320307,001,2024-07-30_13h16.21.027,final,2024.1.5,None,2024-07-30 13h16.25.135378 +0530,
images/5n.tiff,images/18n.tiff,"(0.3, 0.2)","(-0.3, 0.2)",0,13,13,6,,,,,,,,,,,,,,,,,186.9876873,,,,,,,,,186.97454479999993,186.9876873,187.47190719999998,187.47194659999997,187.48754619999994,187.67190920000002,187.67195509999993,187.69601789999996,187.69601789999996,187.69601789999996,188.20405019999993,188.20405019999993,189.22246779999995,['m'],[1.5177086999999574],[None],187.48754619999994,187.69601789999996,,,,,,,,,,,,,,,,,,,,,,,,,,,,,,,,,,,,,,,,,,,,,,,,,,,,,,,,,,,,,,,,,,,,,,,,,,,,,,,,,,,,,,,,,,,,,,,,,,,,,,,,320307,001,2024-07-30_13h16.21.027,final,2024.1.5,None,2024-07-30 13h16.25.135378 +0530,
images/10n.tiff,images/18n.tiff,"(0.3, 0.2)","(-0.3, 0.2)",0,14,14,23,,,,,,,,,,,,,,,,,189.23699859999994,,,,,,,,,189.22380159999994,189.23699859999994,189.72110960000003,189.72115049999996,189.73682449999995,189.92110539999993,189.92115069999994,189.94570170000003,189.94570170000003,189.94570170000003,190.45336679999997,190.45336679999997,191.5715786,['m'],[1.6198504000000185],[None],189.73682449999995,189.94570170000003,,,,,,,,,,,,,,,,,,,,,,,,,,,,,,,,,,,,,,,,,,,,,,,,,,,,,,,,,,,,,,,,,,,,,,,,,,,,,,,,,,,,,,,,,,,,,,,,,,,,,,,,320307,001,2024-07-30_13h16.21.027,final,2024.1.5,None,2024-07-30 13h16.25.135378 +0530,
images/10n.tiff,images/5n.tiff,"(0.3, 0.2)","(-0.3, 0.2)",0,15,15,27,,,,,,,,,,,,,,,,,191.5859241,,,,,,,,,191.57281799999993,191.5859241,192.07056599999993,192.07064580000002,192.08606960000003,192.2703138,192.2703538,192.29359800000003,192.29359800000003,192.29359800000003,192.802568,192.802568,194.05404830000003,['m'],[1.7525824000000512],[None],192.08606960000003,192.29359800000003,,,,,,,,,,,,,,,,,,,,,,,,,,,,,,,,,,,,,,,,,,,,,,,,,,,,,,,,,,,,,,,,,,,,,,,,,,,,,,,,,,,,,,,,,,,,,,,,,,,,,,,,320307,001,2024-07-30_13h16.21.027,final,2024.1.5,None,2024-07-30 13h16.25.135378 +0530,
images/4n.tiff,images/5n.tiff,"(0.3, 0.2)","(-0.3, 0.2)",0,16,16,0,,,,,,,,,,,,,,,,,194.06874999999997,,,,,,,,,194.05548259999995,194.06874999999997,194.5521819,194.5521961,194.56843050000003,194.75202469999994,194.75203389999996,194.7694459,194.7694459,194.7694459,195.26840209999995,195.26840209999995,196.3866066,['m'],[1.6122344999999996],[None],194.56843050000003,194.7694459,,,,,,,,,,,,,,,,,,,,,,,,,,,,,,,,,,,,,,,,,,,,,,,,,,,,,,,,,,,,,,,,,,,,,,,,,,,,,,,,,,,,,,,,,,,,,,,,,,,,,,,,320307,001,2024-07-30_13h16.21.027,final,2024.1.5,None,2024-07-30 13h16.25.135378 +0530,
images/5n.tiff,images/5n.tiff,"(0.3, 0.2)","(-0.3, 0.2)",0,17,17,7,,,,,,,,,,,,,,,,,196.40134949999998,,,,,,,,,196.3880367,196.40134949999998,196.88454080000002,196.88455259999995,196.90094419999997,197.0854311,197.08547579999998,197.10884549999997,197.10884549999997,197.10884549999997,197.6176873,197.6176873,198.73612009999994,['z'],[1.6248709999999846],[None],196.90094419999997,197.10884549999997,,,,,,,,,,,,,,,,,,,,,,,,,,,,,,,,,,,,,,,,,,,,,,,,,,,,,,,,,,,,,,,,,,,,,,,,,,,,,,,,,,,,,,,,,,,,,,,,,,,,,,,,320307,001,2024-07-30_13h16.21.027,final,2024.1.5,None,2024-07-30 13h16.25.135378 +0530,
images/4n.tiff,images/5n.tiff,"(0.3, 0.2)","(-0.3, 0.2)",0,18,18,16,,,,,,,,,,,,,,,,,198.75061850000003,,,,,,,,,198.73734359999997,198.75061850000003,199.23378799999995,199.23379949999998,199.25035959999997,199.4345808,199.43462159999996,199.45798689999998,199.45798689999998,199.45798689999998,199.96687560000004,199.96687560000004,200.95199989999998,['m'],[1.4916448000000173],[None],199.25035959999997,199.45798689999998,,,,,,,,,,,,,,,,,,,,,,,,,,,,,,,,,,,,,,,,,,,,,,,,,,,,,,,,,,,,,,,,,,,,,,,,,,,,,,,,,,,,,,,,,,,,,,,,,,,,,,,,320307,001,2024-07-30_13h16.21.027,final,2024.1.5,None,2024-07-30 13h16.25.135378 +0530,
images/18n.tiff,images/18n.tiff,"(0.3, 0.2)","(-0.3, 0.2)",0,19,19,25,,,,,,,,,,,,,,,,,200.96656909999996,,,,,,,,,200.95327170000002,200.96656909999996,201.45000969999995,201.45001869999993,201.46614789999995,201.6503968,201.6504339,201.6736725,201.6736725,201.6736725,202.18273349999998,202.18273349999998,203.1342871,['z'],[1.444060899999954],[None],201.46614789999995,201.6736725,,,,,,,,,,,,,,,,,,,,,,,,,,,,,,,,,,,,,,,,,,,,,,,,,,,,,,,,,,,,,,,,,,,,,,,,,,,,,,,,,,,,,,,,,,,,,,,,,,,,,,,,320307,001,2024-07-30_13h16.21.027,final,2024.1.5,None,2024-07-30 13h16.25.135378 +0530,
images/18n.tiff,images/5n.tiff,"(0.3, 0.2)","(-0.3, 0.2)",0,20,20,13,,,,,,,,,,,,,,,,,203.14916920000002,,,,,,,,,203.13553399999995,203.14916920000002,203.63211239999993,203.6321231,203.64873040000003,203.8332337,203.8332823,203.85639710000004,203.85639710000004,203.85639710000004,204.36537759999993,204.36537759999993,205.35026779999993,['m'],[1.4855681999999888],[None],203.64873040000003,203.85639710000004,,,,,,,,,,,,,,,,,,,,,,,,,,,,,,,,,,,,,,,,,,,,,,,,,,,,,,,,,,,,,,,,,,,,,,,,,,,,,,,,,,,,,,,,,,,,,,,,,,,,,,,,320307,001,2024-07-30_13h16.21.027,final,2024.1.5,None,2024-07-30 13h16.25.135378 +0530,
images/4n.tiff,images/4n.tiff,"(0.3, 0.2)","(-0.3, 0.2)",0,21,21,19,,,,,,,,,,,,,,,,,205.36510679999998,,,,,,,,,205.35164430000003,205.36510679999998,205.84826019999997,205.84827030000002,205.8646673,206.04884650000002,206.04888979999993,206.07032639999994,206.07032639999994,206.07032639999994,206.5812596,206.5812596,207.56627199999997,['z'],[1.479325499999959],[None],205.8646673,206.07032639999994,,,,,,,,,,,,,,,,,,,,,,,,,,,,,,,,,,,,,,,,,,,,,,,,,,,,,,,,,,,,,,,,,,,,,,,,,,,,,,,,,,,,,,,,,,,,,,,,,,,,,,,,320307,001,2024-07-30_13h16.21.027,final,2024.1.5,None,2024-07-30 13h16.25.135378 +0530,
images/4n.tiff,images/18n.tiff,"(0.3, 0.2)","(-0.3, 0.2)",0,22,22,18,,,,,,,,,,,,,,,,,207.58092629999993,,,,,,,,,207.56729349999995,207.58092629999993,208.06428809999994,208.06429969999994,208.08042840000002,208.2651507,208.26519909999996,208.28829360000003,208.28829360000003,208.28829360000003,208.7972825,208.7972825,210.24698440000003,['m'],[1.949256699999978],[None],208.08042840000002,208.28829360000003,,,,,,,,,,,,,,,,,,,,,,,,,,,,,,,,,,,,,,,,,,,,,,,,,,,,,,,,,,,,,,,,,,,,,,,,,,,,,,,,,,,,,,,,,,,,,,,,,,,,,,,,320307,001,2024-07-30_13h16.21.027,final,2024.1.5,None,2024-07-30 13h16.25.135378 +0530,
images/5n.tiff,images/5n.tiff,"(0.3, 0.2)","(-0.3, 0.2)",0,23,23,22,,,,,,,,,,,,,,,,,210.26318569999995,,,,,,,,,210.24723379999995,210.26318569999995,210.7476062,210.7476661,210.7633206,210.9477212,210.9477721,210.97083000000003,210.97083000000003,210.97083000000003,211.4796832,211.4796832,212.46338980000002,['z'],[1.4912941000000046],[None],210.7633206,210.97083000000003,,,,,,,,,,,,,,,,,,,,,,,,,,,,,,,,,,,,,,,,,,,,,,,,,,,,,,,,,,,,,,,,,,,,,,,,,,,,,,,,,,,,,,,,,,,,,,,,,,,,,,,,320307,001,2024-07-30_13h16.21.027,final,2024.1.5,None,2024-07-30 13h16.25.135378 +0530,
images/10n.tiff,images/5n.tiff,"(0.3, 0.2)","(-0.3, 0.2)",0,24,24,9,,,,,,,,,,,,,,,,,212.4790135,,,,,,,,,212.46363309999998,212.4790135,212.9635017,212.9635437,212.97915519999998,213.16351819999994,213.16356439999998,213.1861214,213.1861214,213.1861214,213.69572,213.69572,214.8793301,['m'],[1.6916660999999067],[None],212.97915519999998,213.1861214,,,,,,,,,,,,,,,,,,,,,,,,,,,,,,,,,,,,,,,,,,,,,,,,,,,,,,,,,,,,,,,,,,,,,,,,,,,,,,,,,,,,,,,,,,,,,,,,,,,,,,,,320307,001,2024-07-30_13h16.21.027,final,2024.1.5,None,2024-07-30 13h16.25.135378 +0530,
images/4n.tiff,images/4n.tiff,"(0.3, 0.2)","(-0.3, 0.2)",0,25,25,3,,,,,,,,,,,,,,,,,214.89507199999997,,,,,,,,,214.879796,214.89507199999997,215.3794052,215.3794492,215.3950822,215.57927479999995,215.57931749999995,215.60178149999996,215.60178149999996,215.60178149999996,216.11156390000002,216.11156390000002,217.02792189999997,['z'],[1.4203435000000582],[None],215.3950822,215.60178149999996,,,,,,,,,,,,,,,,,,,,,,,,,,,,,,,,,,,,,,,,,,,,,,,,,,,,,,,,,,,,,,,,,,,,,,,,,,,,,,,,,,,,,,,,,,,,,,,,,,,,,,,,320307,001,2024-07-30_13h16.21.027,final,2024.1.5,None,2024-07-30 13h16.25.135378 +0530,
images/10n.tiff,images/18n.tiff,"(0.3, 0.2)","(-0.3, 0.2)",0,26,26,10,,,,,,,,,,,,,,,,,217.04430069999995,,,,,,,,,217.02819759999994,217.04430069999995,217.52863469999994,217.5286802,217.54442360000002,217.72853419999996,217.72858100000002,217.75166029999997,217.75166029999997,217.75166029999997,218.26086500000002,218.26086500000002,219.12752840000002,['m'],[1.3657676999999921],[None],217.54442360000002,217.75166029999997,,,,,,,,,,,,,,,,,,,,,,,,,,,,,,,,,,,,,,,,,,,,,,,,,,,,,,,,,,,,,,,,,,,,,,,,,,,,,,,,,,,,,,,,,,,,,,,,,,,,,,,,320307,001,2024-07-30_13h16.21.027,final,2024.1.5,None,2024-07-30 13h16.25.135378 +0530,
images/10n.tiff,images/10n.tiff,"(0.3, 0.2)","(-0.3, 0.2)",0,27,27,11,,,,,,,,,,,,,,,,,219.14363699999996,,,,,,,,,219.12777439999996,219.14363699999996,219.62803839999998,219.62808419999993,219.64375379999996,219.82783790000002,219.82788409999995,219.85089169999998,219.85089169999998,219.85089169999998,220.3601398,220.3601398,221.52662149999998,['z'],[1.6591461000000436],[None],219.64375379999996,219.85089169999998,,,,,,,,,,,,,,,,,,,,,,,,,,,,,,,,,,,,,,,,,,,,,,,,,,,,,,,,,,,,,,,,,,,,,,,,,,,,,,,,,,,,,,,,,,,,,,,,,,,,,,,,320307,001,2024-07-30_13h16.21.027,final,2024.1.5,None,2024-07-30 13h16.25.135378 +0530,
images/5n.tiff,images/10n.tiff,"(0.3, 0.2)","(-0.3, 0.2)",0,28,28,5,,,,,,,,,,,,,,,,,221.54295099999996,,,,,,,,,221.5268815,221.54295099999996,222.02717890000002,222.02722579999994,222.04293639999997,222.22719720000003,222.22724479999994,222.2500048,222.2500048,222.2500048,222.7593314,222.7593314,223.70929289999998,['m'],[1.4521665000000894],[None],222.04293639999997,222.2500048,,,,,,,,,,,,,,,,,,,,,,,,,,,,,,,,,,,,,,,,,,,,,,,,,,,,,,,,,,,,,,,,,,,,,,,,,,,,,,,,,,,,,,,,,,,,,,,,,,,,,,,,320307,001,2024-07-30_13h16.21.027,final,2024.1.5,None,2024-07-30 13h16.25.135378 +0530,
images/4n.tiff,images/18n.tiff,"(0.3, 0.2)","(-0.3, 0.2)",0,29,29,2,,,,,,,,,,,,,,,,,223.72529489999994,,,,,,,,,223.70953619999995,223.72529489999994,224.20987710000003,224.20993579999998,224.225479,224.40977170000002,224.40981229999994,224.4324717,224.4324717,224.4324717,224.94199599999996,224.94199599999996,228.07466170000004,['m'],[3.6289887000000363],[None],224.225479,224.4324717,,,,,,,,,,,,,,,,,,,,,,,,,,,,,,,,,,,,,,,,,,,,,,,,,,,,,,,,,,,,,,,,,,,,,,,,,,,,,,,,,,,,,,,,,,,,,,,,,,,,,,,,320307,001,2024-07-30_13h16.21.027,final,2024.1.5,None,2024-07-30 13h16.25.135378 +0530,
,,,,,,,,,,,,,,,,,,,,,,,,,,,,,,,,,,,,,,,,,,,,,,,,,,,228.07496499999996,228.0908963,228.0908963,240.12229439999993,space,12.026764200000002,None,,,,,,,,,,,,,,,,,,,,,,,,,,,,,,,,,,,,,,,,,,,,,,,,,,,,,,,,,,,,,,,,,,,,,,,,,,,,,,,,,,,,,,,,,,,,,,,,,320307,001,2024-07-30_13h16.21.027,final,2024.1.5,None,2024-07-30 13h16.25.135378 +0530,
images/5n.tiff,images/5n.tiff,,,,,,,0,0,0,4,,,,,,,,,,,,,240.13687720000001,,,,,,,,,,,,,,,,,,,,,,,,,,,,,,,,,,240.1313766,240.13687720000001,240.63684570000004,240.62101579999995,240.62107609999993,240.63684570000004,240.8720057,240.8209119,240.82096039999993,240.8720057,240.8720057,240.8720057,241.3864934,241.3864934,243.76975020000003,['z'],[2.885452600000008],[None],,,,,,,,,,,,,,,,,,,,,,,,,,,,,,,,,,,,,,,,,,,,,,,,,,,,,,,,,,,,,,,,,,,,,,,,,,,,,,,320307,001,2024-07-30_13h16.21.027,final,2024.1.5,None,2024-07-30 13h16.25.135378 +0530,
images/5n.tiff,images/10n.tiff,,,,,,,0,1,1,1,,,,,,,,,,,,,243.78556220000002,,,,,,,,,,,,,,,,,,,,,,,,,,,,,,,,,,243.77068019999996,243.78556220000002,244.28556369999995,244.26995089999997,244.26999670000004,244.28556369999995,244.49062450000002,244.46976219999993,244.4698027,244.49062450000002,244.49062450000002,244.49062450000002,245.00204779999996,245.00204779999996,245.9689189,['m'],[1.4676468000000114],[None],,,,,,,,,,,,,,,,,,,,,,,,,,,,,,,,,,,,,,,,,,,,,,,,,,,,,,,,,,,,,,,,,,,,,,,,,,,,,,,320307,001,2024-07-30_13h16.21.027,final,2024.1.5,None,2024-07-30 13h16.25.135378 +0530,
images/10n.tiff,images/10n.tiff,,,,,,,0,2,2,5,,,,,,,,,,,,,245.98478359999996,,,,,,,,,,,,,,,,,,,,,,,,,,,,,,,,,,245.96944579999996,245.98478359999996,246.48479819999994,246.46909490000002,246.46915269999994,246.48479819999994,246.69232819999996,246.66902179999994,246.66906449999993,246.69232819999996,246.69232819999996,246.69232819999996,247.2013215,247.2013215,248.5364037,['z'],[1.8416515000000118],[None],,,,,,,,,,,,,,,,,,,,,,,,,,,,,,,,,,,,,,,,,,,,,,,,,,,,,,,,,,,,,,,,,,,,,,,,,,,,,,,320307,001,2024-07-30_13h16.21.027,final,2024.1.5,None,2024-07-30 13h16.25.135378 +0530,
images/10n.tiff,images/5n.tiff,,,,,,,0,3,3,3,,,,,,,,,,,,,248.55089029999993,,,,,,,,,,,,,,,,,,,,,,,,,,,,,,,,,,248.53790429999998,248.55089029999993,249.0507214,249.03484229999998,249.03488369999997,249.0507214,249.25720610000002,249.23495380000003,249.2350015,249.25720610000002,249.25720610000002,249.25720610000002,249.7671419,249.7671419,250.75248199999993,['m'],[1.4923681000000215],[None],,,,,,,,,,,,,,,,,,,,,,,,,,,,,,,,,,,,,,,,,,,,,,,,,,,,,,,,,,,,,,,,,,,,,,,,,,,,,,,320307,001,2024-07-30_13h16.21.027,final,2024.1.5,None,2024-07-30 13h16.25.135378 +0530,
images/5n.tiff,images/5n.tiff,,,,,,,0,4,4,0,,,,,,,,,,,,,250.7668299,,,,,,,,,,,,,,,,,,,,,,,,,,,,,,,,,,250.75401689999995,250.7668299,251.26664390000002,251.25086429999993,251.2509058,251.26664390000002,251.47401769999993,251.45099950000002,251.4510502,251.47401769999993,251.47401769999993,251.47401769999993,251.98299709999998,251.98299709999998,252.88302089999996,['z'],[1.4037485999999717],[None],,,,,,,,,,,,,,,,,,,,,,,,,,,,,,,,,,,,,,,,,,,,,,,,,,,,,,,,,,,,,,,,,,,,,,,,,,,,,,,320307,001,2024-07-30_13h16.21.027,final,2024.1.5,None,2024-07-30 13h16.25.135378 +0530,
images/10n.tiff,images/10n.tiff,,,,,,,0,5,5,2,,,,,,,,,,,,,252.8992751,,,,,,,,,,,,,,,,,,,,,,,,,,,,,,,,,,252.88329879999998,252.8992751,253.3992801,253.3834122,253.3834536,253.3992801,253.60541419999998,253.5831556,253.58318709999998,253.60541419999998,253.60541419999998,253.60541419999998,254.11545740000003,254.11545740000003,255.26725600000003,['m'],[1.6481842000000597],[None],,,,,,,,,,,,,,,,,,,,,,,,,,,,,,,,,,,,,,,,,,,,,,,,,,,,,,,,,,,,,,,,,,,,,,,,,,,,,,,320307,001,2024-07-30_13h16.21.027,final,2024.1.5,None,2024-07-30 13h16.25.135378 +0530,
images/10n.tiff,images/10n.tiff,,,,,,,1,0,6,5,,,,,,,,,,,,,255.28189919999994,,,,,,,,,,,,,,,,,,,,,,,,,,,,,,,,,,255.26887749999997,255.28189919999994,255.78172720000003,255.76600739999998,255.7660477,255.78172720000003,255.99180619999998,255.9659509,255.96599209999994,255.99180619999998,255.99180619999998,255.99180619999998,256.4982603,256.4982603,257.63312360000003,['z'],[1.6302173999999923],[None],,,,,,,,,,,,,,,,,,,,,,,,,,,,,,,,,,,,,,,,,,,,,,,,,,,,,,,,,,,,,,,,,,,,,,,,,,,,,,,320307,001,2024-07-30_13h16.21.027,final,2024.1.5,None,2024-07-30 13h16.25.135378 +0530,
images/10n.tiff,images/5n.tiff,,,,,,,1,1,7,3,,,,,,,,,,,,,257.6478884,,,,,,,,,,,,,,,,,,,,,,,,,,,,,,,,,,257.6346854,257.6478884,258.14773510000003,258.1315695,258.1316105,258.14773510000003,258.3543579,258.33192089999994,258.33197809999996,258.3543579,258.3543579,258.3543579,258.86418710000004,258.86418710000004,260.5318705,['m'],[2.171151899999927],[None],,,,,,,,,,,,,,,,,,,,,,,,,,,,,,,,,,,,,,,,,,,,,,,,,,,,,,,,,,,,,,,,,,,,,,,,,,,,,,,320307,001,2024-07-30_13h16.21.027,final,2024.1.5,None,2024-07-30 13h16.25.135378 +0530,
images/10n.tiff,images/10n.tiff,,,,,,,1,2,8,2,,,,,,,,,,,,,260.54688859999993,,,,,,,,,,,,,,,,,,,,,,,,,,,,,,,,,,260.5334863,260.54688859999993,261.04676979999994,261.0308901,261.0309318,261.04676979999994,261.25303849999995,261.2308201,261.2308757,261.25303849999995,261.25303849999995,261.25303849999995,261.7629705,261.7629705,262.814729,['z'],[1.5527577000000292],[None],,,,,,,,,,,,,,,,,,,,,,,,,,,,,,,,,,,,,,,,,,,,,,,,,,,,,,,,,,,,,,,,,,,,,,,,,,,,,,,320307,001,2024-07-30_13h16.21.027,final,2024.1.5,None,2024-07-30 13h16.25.135378 +0530,
images/5n.tiff,images/5n.tiff,,,,,,,1,3,9,4,,,,,,,,,,,,,262.8293405,,,,,,,,,,,,,,,,,,,,,,,,,,,,,,,,,,262.81629519999996,262.8293405,263.32925989999995,263.31356579999994,263.31360739999997,263.32925989999995,263.535723,263.5135075,263.51354839999993,263.535723,263.535723,263.535723,264.0455448999999,264.0455448999999,265.08047819999996,['z'],[1.5344407999999703],[None],,,,,,,,,,,,,,,,,,,,,,,,,,,,,,,,,,,,,,,,,,,,,,,,,,,,,,,,,,,,,,,,,,,,,,,,,,,,,,,320307,001,2024-07-30_13h16.21.027,final,2024.1.5,None,2024-07-30 13h16.25.135378 +0530,
images/5n.tiff,images/10n.tiff,,,,,,,1,4,10,1,,,,,,,,,,,,,265.0954181,,,,,,,,,,,,,,,,,,,,,,,,,,,,,,,,,,265.0822258,265.0954181,265.59527959999997,265.5793928,265.57943470000004,265.59527959999997,265.80079429999995,265.77939939999993,265.7794555,265.80079429999995,265.80079429999995,265.80079429999995,266.3115684,266.3115684,267.1633774,['m'],[1.3570226000000503],[None],,,,,,,,,,,,,,,,,,,,,,,,,,,,,,,,,,,,,,,,,,,,,,,,,,,,,,,,,,,,,,,,,,,,,,,,,,,,,,,320307,001,2024-07-30_13h16.21.027,final,2024.1.5,None,2024-07-30 13h16.25.135378 +0530,
images/5n.tiff,images/5n.tiff,,,,,,,1,5,11,0,,,,,,,,,,,,,267.17797289999993,,,,,,,,,,,,,,,,,,,,,,,,,,,,,,,,,,267.16512399999993,267.17797289999993,267.67785639999994,267.66194160000003,267.6619645,267.67785639999994,267.88428859999993,267.8621328,267.8621741,267.88428859999993,267.88428859999993,267.88428859999993,268.39412139999996,268.39412139999996,269.2963276,['z'],[1.4092117000000144],[None],,,,,,,,,,,,,,,,,,,,,,,,,,,,,,,,,,,,,,,,,,,,,,,,,,,,,,,,,,,,,,,,,,,,,,,,,,,,,,,320307,001,2024-07-30_13h16.21.027,final,2024.1.5,None,2024-07-30 13h16.25.135378 +0530,
images/5n.tiff,images/5n.tiff,,,,,,,2,0,12,0,,,,,,,,,,,,,269.310681,,,,,,,,,,,,,,,,,,,,,,,,,,,,,,,,,,269.29792249999997,269.310681,269.81047099999995,269.7945325,269.79456539999995,269.81047099999995,270.01760640000003,269.9948254,269.99488,270.01760640000003,270.01760640000003,270.01760640000003,270.52689219999996,270.52689219999996,273.1933052,['z'],[3.1717859000000317],[None],,,,,,,,,,,,,,,,,,,,,,,,,,,,,,,,,,,,,,,,,,,,,,,,,,,,,,,,,,,,,,,,,,,,,,,,,,,,,,,320307,001,2024-07-30_13h16.21.027,final,2024.1.5,None,2024-07-30 13h16.25.135378 +0530,
images/10n.tiff,images/10n.tiff,,,,,,,2,1,13,5,,,,,,,,,,,,,273.20937209999994,,,,,,,,,,,,,,,,,,,,,,,,,,,,,,,,,,273.19381300000003,273.20937209999994,273.7093028,273.6935458,273.6935981,273.7093028,273.9150471,273.8934889,273.89353009999996,273.9150471,273.9150471,273.9150471,274.4256929,274.4256929,275.3607329999999,['z'],[1.4427224999999453],[None],,,,,,,,,,,,,,,,,,,,,,,,,,,,,,,,,,,,,,,,,,,,,,,,,,,,,,,,,,,,,,,,,,,,,,,,,,,,,,,320307,001,2024-07-30_13h16.21.027,final,2024.1.5,None,2024-07-30 13h16.25.135378 +0530,
images/5n.tiff,images/5n.tiff,,,,,,,2,2,14,4,,,,,,,,,,,,,275.375247,,,,,,,,,,,,,,,,,,,,,,,,,,,,,,,,,,275.36179409999994,275.375247,275.8751151999999,275.85946959999995,275.85951329999995,275.8751151999999,276.08221039999995,276.0595063,276.0595533,276.08221039999995,276.08221039999995,276.08221039999995,276.5916769,276.5916769,277.5248187,['z'],[1.4358056000000943],[None],,,,,,,,,,,,,,,,,,,,,,,,,,,,,,,,,,,,,,,,,,,,,,,,,,,,,,,,,,,,,,,,,,,,,,,,,,,,,,,320307,001,2024-07-30_13h16.21.027,final,2024.1.5,None,2024-07-30 13h16.25.135378 +0530,
images/10n.tiff,images/5n.tiff,,,,,,,2,3,15,3,,,,,,,,,,,,,277.5411532,,,,,,,,,,,,,,,,,,,,,,,,,,,,,,,,,,277.52509159999994,277.5411532,278.04120359999996,278.02541909999997,278.025465,278.04120359999996,278.24721299999993,278.22539009999997,278.2254331,278.24721299999993,278.24721299999993,278.24721299999993,278.75765440000004,278.75765440000004,281.1408267,['m'],[2.8781970999999658],[None],,,,,,,,,,,,,,,,,,,,,,,,,,,,,,,,,,,,,,,,,,,,,,,,,,,,,,,,,,,,,,,,,,,,,,,,,,,,,,,320307,001,2024-07-30_13h16.21.027,final,2024.1.5,None,2024-07-30 13h16.25.135378 +0530,
images/10n.tiff,images/10n.tiff,,,,,,,2,4,16,2,,,,,,,,,,,,,281.15665989999997,,,,,,,,,,,,,,,,,,,,,,,,,,,,,,,,,,281.1414376999999,281.15665989999997,281.65650279999994,281.64013129999995,281.64014779999997,281.65650279999994,281.8604705999999,281.8401878,281.840204,281.8604705999999,281.8604705999999,281.8604705999999,282.37304449999993,282.37304449999993,283.35807289999997,['z'],[1.4897304999999506],[None],,,,,,,,,,,,,,,,,,,,,,,,,,,,,,,,,,,,,,,,,,,,,,,,,,,,,,,,,,,,,,,,,,,,,,,,,,,,,,,320307,001,2024-07-30_13h16.21.027,final,2024.1.5,None,2024-07-30 13h16.25.135378 +0530,
images/5n.tiff,images/10n.tiff,,,,,,,2,5,17,1,,,,,,,,,,,,,283.3726082,,,,,,,,,,,,,,,,,,,,,,,,,,,,,,,,,,283.3596813,283.3726082,283.872545,283.856915,283.85696049999996,283.872545,284.0731185,284.05603189999994,284.05604320000003,284.0731185,284.0731185,284.0731185,284.57229949999993,284.57229949999993,285.3574289,['m'],[1.2684432999999444],[None],,,,,,,,,,,,,,,,,,,,,,,,,,,,,,,,,,,,,,,,,,,,,,,,,,,,,,,,,,,,,,,,,,,,,,,,,,,,,,,320307,001,2024-07-30_13h16.21.027,final,2024.1.5,None,2024-07-30 13h16.25.135378 +0530,
images/10n.tiff,images/10n.tiff,,,,,,,3,0,18,5,,,,,,,,,,,,,285.37195419999995,,,,,,,,,,,,,,,,,,,,,,,,,,,,,,,,,,285.3590444999999,285.37195419999995,285.87190100000004,285.8562652,285.8563244,285.87190100000004,286.07853370000004,286.0561601,286.05620489999995,286.07853370000004,286.07853370000004,286.07853370000004,286.58841809999996,286.58841809999996,287.456578,['z'],[1.3670505000000048],[None],,,,,,,,,,,,,,,,,,,,,,,,,,,,,,,,,,,,,,,,,,,,,,,,,,,,,,,,,,,,,,,,,,,,,,,,,,,,,,,320307,001,2024-07-30_13h16.21.027,final,2024.1.5,None,2024-07-30 13h16.25.135378 +0530,
images/5n.tiff,images/5n.tiff,,,,,,,3,1,19,4,,,,,,,,,,,,,287.4713636999999,,,,,,,,,,,,,,,,,,,,,,,,,,,,,,,,,,287.45816199999996,287.4713636999999,287.971103,287.955523,287.9555645,287.971103,288.1776534,288.1555731,288.15561959999997,288.1776534,288.1776534,288.1776534,288.68743309999996,288.68743309999996,289.98920989999993,['z'],[1.8041917000000467],[None],,,,,,,,,,,,,,,,,,,,,,,,,,,,,,,,,,,,,,,,,,,,,,,,,,,,,,,,,,,,,,,,,,,,,,,,,,,,,,,320307,001,2024-07-30_13h16.21.027,final,2024.1.5,None,2024-07-30 13h16.25.135378 +0530,
images/10n.tiff,images/5n.tiff,,,,,,,3,2,20,3,,,,,,,,,,,,,290.0039334,,,,,,,,,,,,,,,,,,,,,,,,,,,,,,,,,,289.99065849999994,290.0039334,290.5038014,290.48809739999996,290.48814469999996,290.5038014,290.71056949999996,290.68798839999994,290.6880287999999,290.71056949999996,290.71056949999996,290.71056949999996,291.2201419,291.2201419,295.1542017,['m'],[4.431057799999962],[None],,,,,,,,,,,,,,,,,,,,,,,,,,,,,,,,,,,,,,,,,,,,,,,,,,,,,,,,,,,,,,,,,,,,,,,,,,,,,,,320307,001,2024-07-30_13h16.21.027,final,2024.1.5,None,2024-07-30 13h16.25.135378 +0530,
images/5n.tiff,images/5n.tiff,,,,,,,3,3,21,0,,,,,,,,,,,,,295.16883479999996,,,,,,,,,,,,,,,,,,,,,,,,,,,,,,,,,,295.1557737,295.16883479999996,295.6686521,295.6530316,295.6530733,295.6686521,295.8744542,295.8529957,295.8530374,295.8744542,295.8744542,295.8744542,296.3851847,296.3851847,297.886549,['z'],[1.9956174000000146],[None],,,,,,,,,,,,,,,,,,,,,,,,,,,,,,,,,,,,,,,,,,,,,,,,,,,,,,,,,,,,,,,,,,,,,,,,,,,,,,,320307,001,2024-07-30_13h16.21.027,final,2024.1.5,None,2024-07-30 13h16.25.135378 +0530,
images/5n.tiff,images/10n.tiff,,,,,,,3,4,22,1,,,,,,,,,,,,,297.90125029999996,,,,,,,,,,,,,,,,,,,,,,,,,,,,,,,,,,297.8880996,297.90125029999996,298.4009792,298.3854621,298.3855051,298.4009792,298.610965,298.5855267,298.58558009999996,298.610965,298.610965,298.610965,299.1176172,299.1176172,300.93546369999996,['m'],[2.3073356999999532],[None],,,,,,,,,,,,,,,,,,,,,,,,,,,,,,,,,,,,,,,,,,,,,,,,,,,,,,,,,,,,,,,,,,,,,,,,,,,,,,,320307,001,2024-07-30_13h16.21.027,final,2024.1.5,None,2024-07-30 13h16.25.135378 +0530,
images/10n.tiff,images/10n.tiff,,,,,,,3,5,23,2,,,,,,,,,,,,,300.95025259999994,,,,,,,,,,,,,,,,,,,,,,,,,,,,,,,,,,300.9370465,300.95025259999994,301.4502147,301.43451350000004,301.43455850000004,301.4502147,301.6560443,301.63438460000003,301.6344301,301.6560443,301.6560443,301.6560443,302.1665601,302.1665601,305.10051930000003,['z'],[3.429591099999925],[None],,,,,,,,,,,,,,,,,,,,,,,,,,,,,,,,,,,,,,,,,,,,,,,,,,,,,,,,,,,,,,,,,,,,,,,,,,,,,,,320307,001,2024-07-30_13h16.21.027,final,2024.1.5,None,2024-07-30 13h16.25.135378 +0530,
images/10n.tiff,images/5n.tiff,,,,,,,4,0,24,3,,,,,,,,,,,,,305.11543720000003,,,,,,,,,,,,,,,,,,,,,,,,,,,,,,,,,,305.1017626,305.11543720000003,305.61542000000003,305.5998159,305.5998635,305.61542000000003,305.8221699,305.79968379999997,305.7997281,305.8221699,305.8221699,305.8221699,306.33193049999994,306.33193049999994,307.8000497,['m'],[1.9678063999999722],[None],,,,,,,,,,,,,,,,,,,,,,,,,,,,,,,,,,,,,,,,,,,,,,,,,,,,,,,,,,,,,,,,,,,,,,,,,,,,,,,320307,001,2024-07-30_13h16.21.027,final,2024.1.5,None,2024-07-30 13h16.25.135378 +0530,
images/10n.tiff,images/10n.tiff,,,,,,,4,1,25,2,,,,,,,,,,,,,307.8145519,,,,,,,,,,,,,,,,,,,,,,,,,,,,,,,,,,307.8016594,307.8145519,308.3145434,308.2989254,308.2989737,308.3145434,308.52076099999994,308.49892800000003,308.49897649999997,308.52076099999994,308.52076099999994,308.52076099999994,309.0310352999999,309.0310352999999,309.81623640000004,['z'],[1.2929950999999846],[None],,,,,,,,,,,,,,,,,,,,,,,,,,,,,,,,,,,,,,,,,,,,,,,,,,,,,,,,,,,,,,,,,,,,,,,,,,,,,,,320307,001,2024-07-30_13h16.21.027,final,2024.1.5,None,2024-07-30 13h16.25.135378 +0530,
images/5n.tiff,images/10n.tiff,,,,,,,4,2,26,1,,,,,,,,,,,,,309.8307352,,,,,,,,,,,,,,,,,,,,,,,,,,,,,,,,,,309.8177679,309.8307352,310.3306347999999,310.31484240000003,310.3148902,310.3306347999999,310.53679270000003,310.51481799999993,310.514874,310.53679270000003,310.53679270000003,310.53679270000003,311.04702849999995,311.04702849999995,311.79719959999994,['m'],[1.2453684999999268],[None],,,,,,,,,,,,,,,,,,,,,,,,,,,,,,,,,,,,,,,,,,,,,,,,,,,,,,,,,,,,,,,,,,,,,,,,,,,,,,,320307,001,2024-07-30_13h16.21.027,final,2024.1.5,None,2024-07-30 13h16.25.135378 +0530,
images/10n.tiff,images/10n.tiff,,,,,,,4,3,27,5,,,,,,,,,,,,,311.81321629999997,,,,,,,,,,,,,,,,,,,,,,,,,,,,,,,,,,311.79769819999996,311.81321629999997,312.3131516,312.29749609999993,312.2975386,312.3131516,312.51989580000003,312.49754060000004,312.4975834,312.51989580000003,312.51989580000003,312.51989580000003,313.0296815,313.0296815,313.98131299999994,['z'],[1.447077400000012],[None],,,,,,,,,,,,,,,,,,,,,,,,,,,,,,,,,,,,,,,,,,,,,,,,,,,,,,,,,,,,,,,,,,,,,,,,,,,,,,,320307,001,2024-07-30_13h16.21.027,final,2024.1.5,None,2024-07-30 13h16.25.135378 +0530,
images/5n.tiff,images/5n.tiff,,,,,,,4,4,28,0,,,,,,,,,,,,,313.99602450000003,,,,,,,,,,,,,,,,,,,,,,,,,,,,,,,,,,313.98284169999994,313.99602450000003,314.4958645,314.48017039999996,314.4802272,314.4958645,314.7013757,314.6801235,314.6801652,314.7013757,314.7013757,314.7013757,315.21225669999995,315.21225669999995,317.9467921,['z'],[3.2410315000000764],[None],,,,,,,,,,,,,,,,,,,,,,,,,,,,,,,,,,,,,,,,,,,,,,,,,,,,,,,,,,,,,,,,,,,,,,,,,,,,,,,320307,001,2024-07-30_13h16.21.027,final,2024.1.5,None,2024-07-30 13h16.25.135378 +0530,
images/5n.tiff,images/5n.tiff,,,,,,,4,5,29,4,,,,,,,,,,,,,317.96133649999996,,,,,,,,,,,,,,,,,,,,,,,,,,,,,,,,,,317.94834039999995,317.96133649999996,318.4611927,318.44558019999994,318.44562179999997,318.4611927,318.66666489999994,318.6455597,318.64560439999997,318.66666489999994,318.66666489999994,318.66666489999994,319.1776789,319.1776789,320.09624489999993,['z'],[1.4268654999999626],[None],,,,,,,,,,,,,,,,,,,,,,,,,,,,,,,,,,,,,,,,,,,,,,,,,,,,,,,,,,,,,,,,,,,,,,,,,,,,,,,320307,001,2024-07-30_13h16.21.027,final,2024.1.5,None,2024-07-30 13h16.25.135378 +0530,
images/5n.tiff,images/10n.tiff,,,,,,,5,0,30,1,,,,,,,,,,,,,320.1106024,,,,,,,,,,,,,,,,,,,,,,,,,,,,,,,,,,320.0978385,320.1106024,320.6104409,320.5949547999999,320.5950131,320.6104409,320.8185752,320.79482579999996,320.79487969999997,320.8185752,320.8185752,320.8185752,321.32698809999994,321.32698809999994,322.96164319999997,['m'],[2.131486999999993],[None],,,,,,,,,,,,,,,,,,,,,,,,,,,,,,,,,,,,,,,,,,,,,,,,,,,,,,,,,,,,,,,,,,,,,,,,,,,,,,,320307,001,2024-07-30_13h16.21.027,final,2024.1.5,None,2024-07-30 13h16.25.135378 +0530,
images/5n.tiff,images/5n.tiff,,,,,,,5,1,31,0,,,,,,,,,,,,,322.97642349999995,,,,,,,,,,,,,,,,,,,,,,,,,,,,,,,,,,322.96312529999994,322.97642349999995,323.4762192,323.4605214,323.4605764,323.4762192,323.68274949999994,323.660381,323.6604564,323.68274949999994,323.68274949999994,323.68274949999994,324.1926963,324.1926963,325.22759979999995,['z'],[1.5310323999999582],[None],,,,,,,,,,,,,,,,,,,,,,,,,,,,,,,,,,,,,,,,,,,,,,,,,,,,,,,,,,,,,,,,,,,,,,,,,,,,,,,320307,001,2024-07-30_13h16.21.027,final,2024.1.5,None,2024-07-30 13h16.25.135378 +0530,
images/10n.tiff,images/5n.tiff,,,,,,,5,2,32,3,,,,,,,,,,,,,325.24225029999997,,,,,,,,,,,,,,,,,,,,,,,,,,,,,,,,,,325.2292018,325.24225029999997,325.7422264,325.7265653,325.7266136,325.7422264,325.94763159999997,325.9264609,325.9265045,325.94763159999997,325.94763159999997,325.94763159999997,326.4585827,326.4585827,327.96072439999995,['m'],[2.010192200000006],[None],,,,,,,,,,,,,,,,,,,,,,,,,,,,,,,,,,,,,,,,,,,,,,,,,,,,,,,,,,,,,,,,,,,,,,,,,,,,,,,320307,001,2024-07-30_13h16.21.027,final,2024.1.5,None,2024-07-30 13h16.25.135378 +0530,
images/10n.tiff,images/10n.tiff,,,,,,,5,3,33,5,,,,,,,,,,,,,327.9748438,,,,,,,,,,,,,,,,,,,,,,,,,,,,,,,,,,327.96229809999994,327.9748438,328.47467349999994,328.4588025,328.4588451,328.47467349999994,328.6796745,328.6588095,328.65885499999996,328.6796745,328.6796745,328.6796745,329.1910396,329.1910396,330.49236949999994,['z'],[1.7977951000000303],[None],,,,,,,,,,,,,,,,,,,,,,,,,,,,,,,,,,,,,,,,,,,,,,,,,,,,,,,,,,,,,,,,,,,,,,,,,,,,,,,320307,001,2024-07-30_13h16.21.027,final,2024.1.5,None,2024-07-30 13h16.25.135378 +0530,
images/5n.tiff,images/5n.tiff,,,,,,,5,4,34,4,,,,,,,,,,,,,330.50709879999994,,,,,,,,,,,,,,,,,,,,,,,,,,,,,,,,,,330.49393459999993,330.50709879999994,331.0069991,330.99140299999993,330.9914445,331.0069991,331.21515489999996,331.1914552,331.1915046,331.21515489999996,331.21515489999996,331.21515489999996,331.72357629999993,331.72357629999993,332.7082953,['z'],[1.4786957999999686],[None],,,,,,,,,,,,,,,,,,,,,,,,,,,,,,,,,,,,,,,,,,,,,,,,,,,,,,,,,,,,,,,,,,,,,,,,,,,,,,,320307,001,2024-07-30_13h16.21.027,final,2024.1.5,None,2024-07-30 13h16.25.135378 +0530,
images/10n.tiff,images/10n.tiff,,,,,,,5,5,35,2,,,,,,,,,,,,,332.7231992,,,,,,,,,,,,,,,,,,,,,,,,,,,,,,,,,,332.7099989,332.7231992,333.22304649999995,333.2072529,333.2072964999999,333.22304649999995,333.42811179999995,333.4072065,333.4072515,333.42811179999995,333.42811179999995,333.42811179999995,333.93947999999995,333.93947999999995,335.10753129999995,['z'],[1.6654206000000613],[None],,,,,,,,,,,,,,,,,,,,,,,,,,,,,,,,,,,,,,,,,,,,,,,,,,,,,,,,,,,,,,,,,,,,,,,,,,,,,,,320307,001,2024-07-30_13h16.21.027,final,2024.1.5,None,2024-07-30 13h16.25.135378 +0530,
images/10n.tiff,images/5n.tiff,,,,,,,6,0,36,3,,,,,,,,,,,,,335.1223421,,,,,,,,,,,,,,,,,,,,,,,,,,,,,,,,,,335.1089351,335.1223421,335.62222879999996,335.6064965,335.60654199999993,335.62222879999996,335.82832089999994,335.8064672,335.8065151,335.82832089999994,335.82832089999994,335.82832089999994,336.33876219999996,336.33876219999996,337.5736307,['m'],[1.7298159000000624],[None],,,,,,,,,,,,,,,,,,,,,,,,,,,,,,,,,,,,,,,,,,,,,,,,,,,,,,,,,,,,,,,,,,,,,,,,,,,,,,,320307,001,2024-07-30_13h16.21.027,final,2024.1.5,None,2024-07-30 13h16.25.135378 +0530,
images/10n.tiff,images/10n.tiff,,,,,,,6,1,37,2,,,,,,,,,,,,,337.58832920000003,,,,,,,,,,,,,,,,,,,,,,,,,,,,,,,,,,337.5750916,337.58832920000003,338.08815109999995,338.07247949999993,338.0725279,338.08815109999995,338.2948564,338.27238559999995,338.27243559999994,338.2948564,338.2948564,338.2948564,338.80452399999996,338.80452399999996,340.222785,['z'],[1.911299500000041],[None],,,,,,,,,,,,,,,,,,,,,,,,,,,,,,,,,,,,,,,,,,,,,,,,,,,,,,,,,,,,,,,,,,,,,,,,,,,,,,,320307,001,2024-07-30_13h16.21.027,final,2024.1.5,None,2024-07-30 13h16.25.135378 +0530,
images/10n.tiff,images/10n.tiff,,,,,,,6,2,38,5,,,,,,,,,,,,,340.23743829999995,,,,,,,,,,,,,,,,,,,,,,,,,,,,,,,,,,340.2243001,340.23743829999995,340.73731689999994,340.7217109,340.72176029999997,340.73731689999994,340.9441745,340.92153389999993,340.921584,340.9441745,340.9441745,340.9441745,341.45364620000004,341.45364620000004,342.48863979999993,['z'],[1.533260999999925],[None],,,,,,,,,,,,,,,,,,,,,,,,,,,,,,,,,,,,,,,,,,,,,,,,,,,,,,,,,,,,,,,,,,,,,,,,,,,,,,,320307,001,2024-07-30_13h16.21.027,final,2024.1.5,None,2024-07-30 13h16.25.135378 +0530,
images/5n.tiff,images/5n.tiff,,,,,,,6,3,39,0,,,,,,,,,,,,,342.50321619999994,,,,,,,,,,,,,,,,,,,,,,,,,,,,,,,,,,342.4902444,342.50321619999994,343.0030681,342.9874319,342.98747339999994,343.0030681,343.2081745,343.1874066,343.18744780000003,343.2081745,343.2081745,343.2081745,343.7195943,343.7195943,344.9544309,['z'],[1.741952099999935],[None],,,,,,,,,,,,,,,,,,,,,,,,,,,,,,,,,,,,,,,,,,,,,,,,,,,,,,,,,,,,,,,,,,,,,,,,,,,,,,,320307,001,2024-07-30_13h16.21.027,final,2024.1.5,None,2024-07-30 13h16.25.135378 +0530,
images/5n.tiff,images/10n.tiff,,,,,,,6,4,40,1,,,,,,,,,,,,,344.96914169999997,,,,,,,,,,,,,,,,,,,,,,,,,,,,,,,,,,344.955985,344.96914169999997,345.46901399999996,345.4530805,345.4531268,345.46901399999996,345.6741354,345.6531901,345.6532351,345.6741354,345.6741354,345.6741354,346.1854964,346.1854964,347.1204677,['m'],[1.4360492999999224],[None],,,,,,,,,,,,,,,,,,,,,,,,,,,,,,,,,,,,,,,,,,,,,,,,,,,,,,,,,,,,,,,,,,,,,,,,,,,,,,,320307,001,2024-07-30_13h16.21.027,final,2024.1.5,None,2024-07-30 13h16.25.135378 +0530,
images/5n.tiff,images/5n.tiff,,,,,,,6,5,41,4,,,,,,,,,,,,,347.13510809999997,,,,,,,,,,,,,,,,,,,,,,,,,,,,,,,,,,347.12237439999996,347.13510809999997,347.63502149999994,347.619386,347.61943319999995,347.63502149999994,347.84218089999996,347.8193011,347.8193451,347.84218089999996,347.84218089999996,347.84218089999996,348.35141930000003,348.35141930000003,349.16983220000003,['z'],[1.3239347999999609],[None],,,,,,,,,,,,,,,,,,,,,,,,,,,,,,,,,,,,,,,,,,,,,,,,,,,,,,,,,,,,,,,,,,,,,,,,,,,,,,,320307,001,2024-07-30_13h16.21.027,final,2024.1.5,None,2024-07-30 13h16.25.135378 +0530,
images/5n.tiff,images/5n.tiff,,,,,,,7,0,42,4,,,,,,,,,,,,,349.18441939999997,,,,,,,,,,,,,,,,,,,,,,,,,,,,,,,,,,349.1715019,349.18441939999997,349.68414509999997,349.66781380000003,349.6678298,349.68414509999997,349.8909113,349.86857359999993,349.8686157,349.8909113,349.8909113,349.8909113,350.400635,350.400635,352.7686828,['z'],[2.8665613000000576],[None],,,,,,,,,,,,,,,,,,,,,,,,,,,,,,,,,,,,,,,,,,,,,,,,,,,,,,,,,,,,,,,,,,,,,,,,,,,,,,,320307,001,2024-07-30_13h16.21.027,final,2024.1.5,None,2024-07-30 13h16.25.135378 +0530,
images/10n.tiff,images/10n.tiff,,,,,,,7,1,43,5,,,,,,,,,,,,,352.7833371,,,,,,,,,,,,,,,,,,,,,,,,,,,,,,,,,,352.7703833,352.7833371,353.2830839,353.26743759999994,353.26747929999993,353.2830839,353.488711,353.46746619999993,353.4675096,353.488711,353.488711,353.488711,353.99946889999995,353.99946889999995,354.86782079999995,['z'],[1.3735940999999912],[None],,,,,,,,,,,,,,,,,,,,,,,,,,,,,,,,,,,,,,,,,,,,,,,,,,,,,,,,,,,,,,,,,,,,,,,,,,,,,,,320307,001,2024-07-30_13h16.21.027,final,2024.1.5,None,2024-07-30 13h16.25.135378 +0530,
images/10n.tiff,images/10n.tiff,,,,,,,7,2,44,2,,,,,,,,,,,,,354.8824566,,,,,,,,,,,,,,,,,,,,,,,,,,,,,,,,,,354.8691850999999,354.8824566,355.3824553,355.3668135,355.3668618,355.3824553,355.5877851999999,355.5667695,355.56681339999994,355.5877851999999,355.5877851999999,355.5877851999999,356.09876749999995,356.09876749999995,357.5669688,['z'],[1.970593000000008],[None],,,,,,,,,,,,,,,,,,,,,,,,,,,,,,,,,,,,,,,,,,,,,,,,,,,,,,,,,,,,,,,,,,,,,,,,,,,,,,,320307,001,2024-07-30_13h16.21.027,final,2024.1.5,None,2024-07-30 13h16.25.135378 +0530,
images/5n.tiff,images/5n.tiff,,,,,,,7,3,45,0,,,,,,,,,,,,,357.5817046,,,,,,,,,,,,,,,,,,,,,,,,,,,,,,,,,,357.5685988999999,357.5817046,358.08150770000003,358.06583629999994,358.06587640000004,358.08150770000003,358.28782929999994,358.26578709999995,358.2658316,358.28782929999994,358.28782929999994,358.28782929999994,358.79788219999995,358.79788219999995,359.6661985,['z'],[1.373579100000029],[None],,,,,,,,,,,,,,,,,,,,,,,,,,,,,,,,,,,,,,,,,,,,,,,,,,,,,,,,,,,,,,,,,,,,,,,,,,,,,,,320307,001,2024-07-30_13h16.21.027,final,2024.1.5,None,2024-07-30 13h16.25.135378 +0530,
images/10n.tiff,images/5n.tiff,,,,,,,7,4,46,3,,,,,,,,,,,,,359.68093659999994,,,,,,,,,,,,,,,,,,,,,,,,,,,,,,,,,,359.6677093,359.68093659999994,360.18083459999997,360.16516959999996,360.16521259999996,360.18083459999997,360.3860761,360.36517309999994,360.36521799999997,360.3860761,360.3860761,360.3860761,360.897211,360.897211,361.7821991,['m'],[1.3795815999999377],[None],,,,,,,,,,,,,,,,,,,,,,,,,,,,,,,,,,,,,,,,,,,,,,,,,,,,,,,,,,,,,,,,,,,,,,,,,,,,,,,320307,001,2024-07-30_13h16.21.027,final,2024.1.5,None,2024-07-30 13h16.25.135378 +0530,
images/5n.tiff,images/10n.tiff,,,,,,,7,5,47,1,,,,,,,,,,,,,361.79683299999994,,,,,,,,,,,,,,,,,,,,,,,,,,,,,,,,,,361.78373199999993,361.79683299999994,362.29675689999993,362.2812194,362.28126489999994,362.29675689999993,362.5020556,362.48114989999993,362.48119249999996,362.5020556,362.5020556,362.5020556,363.01330349999995,363.01330349999995,364.0482811,['m'],[1.5356320999999298],[None],,,,,,,,,,,,,,,,,,,,,,,,,,,,,,,,,,,,,,,,,,,,,,,,,,,,,,,,,,,,,,,,,,,,,,,,,,,,,,,320307,001,2024-07-30_13h16.21.027,final,2024.1.5,None,2024-07-30 13h16.25.135378 +0530,
images/10n.tiff,images/10n.tiff,,,,,,,8,0,48,5,,,,,,,,,,,,,364.0628545,,,,,,,,,,,,,,,,,,,,,,,,,,,,,,,,,,364.0498551,364.0628545,364.5627636,364.5469719999999,364.54701429999994,364.5627636,364.76819099999994,364.7469424,364.74706569999995,364.76819099999994,364.76819099999994,364.76819099999994,365.27922110000003,365.27922110000003,366.0640481,['z'],[1.2854171999999835],[None],,,,,,,,,,,,,,,,,,,,,,,,,,,,,,,,,,,,,,,,,,,,,,,,,,,,,,,,,,,,,,,,,,,,,,,,,,,,,,,320307,001,2024-07-30_13h16.21.027,final,2024.1.5,None,2024-07-30 13h16.25.135378 +0530,
images/5n.tiff,images/5n.tiff,,,,,,,8,1,49,0,,,,,,,,,,,,,366.07884199999995,,,,,,,,,,,,,,,,,,,,,,,,,,,,,,,,,,366.0656048,366.07884199999995,366.57881449999996,366.5631345,366.5632029,366.57881449999996,366.7851857,366.76308520000003,366.76313539999995,366.7851857,366.7851857,366.7851857,367.2951592,367.2951592,368.2799541,['z'],[1.477170000000001],[None],,,,,,,,,,,,,,,,,,,,,,,,,,,,,,,,,,,,,,,,,,,,,,,,,,,,,,,,,,,,,,,,,,,,,,,,,,,,,,,320307,001,2024-07-30_13h16.21.027,final,2024.1.5,None,2024-07-30 13h16.25.135378 +0530,
images/10n.tiff,images/5n.tiff,,,,,,,8,2,50,3,,,,,,,,,,,,,368.29480199999995,,,,,,,,,,,,,,,,,,,,,,,,,,,,,,,,,,368.28152859999994,368.29480199999995,368.79466969999993,368.7791087,368.7791567,368.79466969999993,369.001878,368.97896529999997,368.97901339999993,369.001878,369.001878,369.001878,369.51121069999994,369.51121069999994,370.2629609,['m'],[1.2515642000000753],[None],,,,,,,,,,,,,,,,,,,,,,,,,,,,,,,,,,,,,,,,,,,,,,,,,,,,,,,,,,,,,,,,,,,,,,,,,,,,,,,320307,001,2024-07-30_13h16.21.027,final,2024.1.5,None,2024-07-30 13h16.25.135378 +0530,
images/10n.tiff,images/10n.tiff,,,,,,,8,3,51,2,,,,,,,,,,,,,370.2775743,,,,,,,,,,,,,,,,,,,,,,,,,,,,,,,,,,370.2643838999999,370.2775743,370.77741,370.7616969,370.7617456,370.77741,370.98416219999996,370.96174030000003,370.9617924,370.98416219999996,370.98416219999996,370.98416219999996,371.49365559999995,371.49365559999995,372.3126395,['z'],[1.3258740999999645],[None],,,,,,,,,,,,,,,,,,,,,,,,,,,,,,,,,,,,,,,,,,,,,,,,,,,,,,,,,,,,,,,,,,,,,,,,,,,,,,,320307,001,2024-07-30_13h16.21.027,final,2024.1.5,None,2024-07-30 13h16.25.135378 +0530,
images/5n.tiff,images/10n.tiff,,,,,,,8,4,52,1,,,,,,,,,,,,,372.3269171,,,,,,,,,,,,,,,,,,,,,,,,,,,,,,,,,,372.3142086,372.3269171,372.82674579999997,372.8111703,372.811216,372.82674579999997,373.03362899999996,373.0109822,373.0110319,373.03362899999996,373.03362899999996,373.03362899999996,373.5430783,373.5430783,374.2947099,['m'],[1.2518158999999969],[None],,,,,,,,,,,,,,,,,,,,,,,,,,,,,,,,,,,,,,,,,,,,,,,,,,,,,,,,,,,,,,,,,,,,,,,,,,,,,,,320307,001,2024-07-30_13h16.21.027,final,2024.1.5,None,2024-07-30 13h16.25.135378 +0530,
images/5n.tiff,images/5n.tiff,,,,,,,8,5,53,4,,,,,,,,,,,,,374.30953919999996,,,,,,,,,,,,,,,,,,,,,,,,,,,,,,,,,,374.2962762,374.30953919999996,374.8094524,374.79364119999997,374.79368919999996,374.8094524,375.01593799999995,374.99356819999997,374.99361619999996,375.01593799999995,375.01593799999995,375.01593799999995,375.5258475,375.5258475,376.3109612,['z'],[1.286091899999974],[None],,,,,,,,,,,,,,,,,,,,,,,,,,,,,,,,,,,,,,,,,,,,,,,,,,,,,,,,,,,,,,,,,,,,,,,,,,,,,,,320307,001,2024-07-30_13h16.21.027,final,2024.1.5,None,2024-07-30 13h16.25.135378 +0530,
images/5n.tiff,images/10n.tiff,,,,,,,9,0,54,1,,,,,,,,,,,,,376.32555009999993,,,,,,,,,,,,,,,,,,,,,,,,,,,,,,,,,,376.3125547,376.32555009999993,376.82538889999995,376.8096674,376.8097157,376.82538889999995,377.03277469999995,377.0096875,377.0097387,377.03277469999995,377.03277469999995,377.03277469999995,377.5417505,377.5417505,378.89334709999997,['m'],[1.8528478000000632],[None],,,,,,,,,,,,,,,,,,,,,,,,,,,,,,,,,,,,,,,,,,,,,,,,,,,,,,,,,,,,,,,,,,,,,,,,,,,,,,,320307,001,2024-07-30_13h16.21.027,final,2024.1.5,None,2024-07-30 13h16.25.135378 +0530,
images/10n.tiff,images/10n.tiff,,,,,,,9,1,55,2,,,,,,,,,,,,,378.9079933,,,,,,,,,,,,,,,,,,,,,,,,,,,,,,,,,,378.8948786,378.9079933,379.4078913,379.39215039999993,379.39221219999996,379.4078913,379.6151223,379.59213700000004,379.5921907,379.6151223,379.6151223,379.6151223,380.12429449999996,380.12429449999996,380.9924365,['z'],[1.3673071000000618],[None],,,,,,,,,,,,,,,,,,,,,,,,,,,,,,,,,,,,,,,,,,,,,,,,,,,,,,,,,,,,,,,,,,,,,,,,,,,,,,,320307,001,2024-07-30_13h16.21.027,final,2024.1.5,None,2024-07-30 13h16.25.135378 +0530,
images/10n.tiff,images/10n.tiff,,,,,,,9,2,56,5,,,,,,,,,,,,,381.00727709999995,,,,,,,,,,,,,,,,,,,,,,,,,,,,,,,,,,380.99400109999993,381.00727709999995,381.5071635,381.4913969,381.49144010000003,381.5071635,381.7117305,381.6911151,381.6911581,381.7117305,381.7117305,381.7117305,382.2236111,382.2236111,383.79172309999996,['z'],[2.0700144999999566],[None],,,,,,,,,,,,,,,,,,,,,,,,,,,,,,,,,,,,,,,,,,,,,,,,,,,,,,,,,,,,,,,,,,,,,,,,,,,,,,,320307,001,2024-07-30_13h16.21.027,final,2024.1.5,None,2024-07-30 13h16.25.135378 +0530,
images/5n.tiff,images/5n.tiff,,,,,,,9,3,57,0,,,,,,,,,,,,,383.806351,,,,,,,,,,,,,,,,,,,,,,,,,,,,,,,,,,383.79328819999995,383.806351,384.30623510000004,384.2906407,384.29068709999996,384.30623510000004,384.51189059999996,384.4903933,384.4904349,384.51189059999996,384.51189059999996,384.51189059999996,385.0226962,385.0226962,385.8244093,['z'],[1.301679599999943],[None],,,,,,,,,,,,,,,,,,,,,,,,,,,,,,,,,,,,,,,,,,,,,,,,,,,,,,,,,,,,,,,,,,,,,,,,,,,,,,,320307,001,2024-07-30_13h16.21.027,final,2024.1.5,None,2024-07-30 13h16.25.135378 +0530,
images/10n.tiff,images/5n.tiff,,,,,,,9,4,58,3,,,,,,,,,,,,,385.8389216,,,,,,,,,,,,,,,,,,,,,,,,,,,,,,,,,,385.8260598,385.8389216,386.3388575999999,386.3231751,386.3232238,386.3388575999999,386.544366,386.5231962,386.52325549999995,386.544366,386.544366,386.544366,387.05536190000004,387.05536190000004,387.87236839999997,['m'],[1.3175260000000435],[None],,,,,,,,,,,,,,,,,,,,,,,,,,,,,,,,,,,,,,,,,,,,,,,,,,,,,,,,,,,,,,,,,,,,,,,,,,,,,,,320307,001,2024-07-30_13h16.21.027,final,2024.1.5,None,2024-07-30 13h16.25.135378 +0530,
images/5n.tiff,images/5n.tiff,,,,,,,9,5,59,4,,,,,,,,,,,,,387.8881998,,,,,,,,,,,,,,,,,,,,,,,,,,,,,,,,,,387.87292999999994,387.8881998,388.38818580000003,388.3725794,388.37262329999993,388.38818580000003,388.59336790000003,388.5724458,388.5724863,388.59336790000003,388.59336790000003,388.59336790000003,389.10469099999995,389.10469099999995,390.1231565,['z'],[1.5243272999999817],[None],,,,,,,,,,,,,,,,,,,,,,,,,,,,,,,,,,,,,,,,,,,,,,,,,,,,,,,,,,,,,,,,,,,,,,,,,,,,,,,320307,001,2024-07-30_13h16.21.027,final,2024.1.5,None,2024-07-30 13h16.25.135378 +0530,
,,,,,,,,,,,,,,,,,,,,,,,,,,,,,,,,,,,,,,,,,,,,,,,,,,,,,,,,,,,,,,,,,,,,,,,,,,,,390.1242548999999,390.1375609,390.1375609,393.37127960000004,space,3.2201278,None,,,,,,,,,,,,,,,,,,,,,,,,,,,,,,,,,,,,,,,,,,,,,,,,,,,,,,,,,,,,,,,,,,,,,,,,320307,001,2024-07-30_13h16.21.027,final,2024.1.5,None,2024-07-30 13h16.25.135378 +0530,
images/18n.tiff,images/18n.tiff,,,,,,,,,,,0,0,0,3,,,,,,,,,393.3865553,,,,,,,,,,,,,,,,,,,,,,,,,,,,,,,,,,,,,,,,,,,,,,,,,,,,,,,,,,,393.3788056,393.3865553,393.8864286,393.8707447,393.8707943,393.8864286,394.11843459999994,394.07072479999994,394.07077780000003,394.11843459999994,394.11843459999994,394.11843459999994,394.6195711,394.6195711,395.9373572,['z'],[1.815048000000047],[None],,,,,,,,,,,,,,,,,,,,,,,,,,,,,,,,,,,,,,,,,,,,,,,,,,,,,,320307,001,2024-07-30_13h16.21.027,final,2024.1.5,None,2024-07-30 13h16.25.135378 +0530,
images/18n.tiff,images/4n.tiff,,,,,,,,,,,0,1,1,2,,,,,,,,,395.95233609999997,,,,,,,,,,,,,,,,,,,,,,,,,,,,,,,,,,,,,,,,,,,,,,,,,,,,,,,,,,,395.93958989999993,395.95233609999997,396.4522348,396.4365307,396.43657909999996,396.4522348,396.65863329999996,396.63653329999994,396.6365837,396.65863329999996,396.65863329999996,396.65863329999996,397.16885069999995,397.16885069999995,398.3867872,['m'],[1.715075899999988],[None],,,,,,,,,,,,,,,,,,,,,,,,,,,,,,,,,,,,,,,,,,,,,,,,,,,,,,320307,001,2024-07-30_13h16.21.027,final,2024.1.5,None,2024-07-30 13h16.25.135378 +0530,
images/4n.tiff,images/18n.tiff,,,,,,,,,,,0,2,2,0,,,,,,,,,398.40158949999994,,,,,,,,,,,,,,,,,,,,,,,,,,,,,,,,,,,,,,,,,,,,,,,,,,,,,,,,,,,398.38813020000003,398.40158949999994,398.90141679999994,398.88569679999995,398.88574579999994,398.90141679999994,399.1070752,399.0856922,399.08574319999997,399.1070752,399.1070752,399.1070752,399.6179137,399.6179137,400.88627519999994,['m'],[1.7708291000000145],[None],,,,,,,,,,,,,,,,,,,,,,,,,,,,,,,,,,,,,,,,,,,,,,,,,,,,,,320307,001,2024-07-30_13h16.21.027,final,2024.1.5,None,2024-07-30 13h16.25.135378 +0530,
images/4n.tiff,images/4n.tiff,,,,,,,,,,,0,3,3,4,,,,,,,,,400.90076819999996,,,,,,,,,,,,,,,,,,,,,,,,,,,,,,,,,,,,,,,,,,,,,,,,,,,,,,,,,,,400.8878607,400.90076819999996,401.4006334,401.3847537,401.3847961999999,401.4006334,401.60848419999996,401.5848504,401.5849007,401.60848419999996,401.60848419999996,401.60848419999996,402.1171123,402.1171123,403.1336875,['z'],[1.5091125000000147],[None],,,,,,,,,,,,,,,,,,,,,,,,,,,,,,,,,,,,,,,,,,,,,,,,,,,,,,320307,001,2024-07-30_13h16.21.027,final,2024.1.5,None,2024-07-30 13h16.25.135378 +0530,
images/4n.tiff,images/4n.tiff,,,,,,,,,,,0,4,4,1,,,,,,,,,403.1499568,,,,,,,,,,,,,,,,,,,,,,,,,,,,,,,,,,,,,,,,,,,,,,,,,,,,,,,,,,,403.1342354,403.1499568,403.6498625,403.63420189999994,403.6342524,403.6498625,403.85683279999995,403.8341396,403.83418969999997,403.85683279999995,403.85683279999995,403.85683279999995,404.36635329999996,404.36635329999996,405.4179066,['z'],[1.548519199999987],[None],,,,,,,,,,,,,,,,,,,,,,,,,,,,,,,,,,,,,,,,,,,,,,,,,,,,,,320307,001,2024-07-30_13h16.21.027,final,2024.1.5,None,2024-07-30 13h16.25.135378 +0530,
images/18n.tiff,images/18n.tiff,,,,,,,,,,,0,5,5,5,,,,,,,,,405.43265779999996,,,,,,,,,,,,,,,,,,,,,,,,,,,,,,,,,,,,,,,,,,,,,,,,,,,,,,,,,,,405.4194918,405.43265779999996,405.93224189999995,405.9165777,405.9166323,405.93224189999995,406.1413541,406.11670999999996,406.1167619,406.1413541,406.1413541,406.1413541,406.64889539999996,406.64889539999996,407.41758269999997,['z'],[1.2721203999999489],[None],,,,,,,,,,,,,,,,,,,,,,,,,,,,,,,,,,,,,,,,,,,,,,,,,,,,,,320307,001,2024-07-30_13h16.21.027,final,2024.1.5,None,2024-07-30 13h16.25.135378 +0530,
images/4n.tiff,images/4n.tiff,,,,,,,,,,,1,0,6,1,,,,,,,,,407.43199839999994,,,,,,,,,,,,,,,,,,,,,,,,,,,,,,,,,,,,,,,,,,,,,,,,,,,,,,,,,,,407.41918630000004,407.43199839999994,407.93184189999994,407.91621549999996,407.91626419999994,407.93184189999994,408.13920249999995,408.11602109999995,408.1160722,408.13920249999995,408.13920249999995,408.13920249999995,408.6482477,408.6482477,412.7654901,['z'],[4.6183628],[None],,,,,,,,,,,,,,,,,,,,,,,,,,,,,,,,,,,,,,,,,,,,,,,,,,,,,,320307,001,2024-07-30_13h16.21.027,final,2024.1.5,None,2024-07-30 13h16.25.135378 +0530,
images/4n.tiff,images/4n.tiff,,,,,,,,,,,1,1,7,4,,,,,,,,,412.7802651,,,,,,,,,,,,,,,,,,,,,,,,,,,,,,,,,,,,,,,,,,,,,,,,,,,,,,,,,,,412.7670537999999,412.7802651,413.2800766,413.26434879999994,413.264393,413.2800766,413.48751209999995,413.4643927,413.4644444,413.48751209999995,413.48751209999995,413.48751209999995,413.99652399999997,413.99652399999997,415.5808474,['z'],[2.086259499999983],[None],,,,,,,,,,,,,,,,,,,,,,,,,,,,,,,,,,,,,,,,,,,,,,,,,,,,,,320307,001,2024-07-30_13h16.21.027,final,2024.1.5,None,2024-07-30 13h16.25.135378 +0530,
images/18n.tiff,images/18n.tiff,,,,,,,,,,,1,2,8,3,,,,,,,,,415.5958939,,,,,,,,,,,,,,,,,,,,,,,,,,,,,,,,,,,,,,,,,,,,,,,,,,,,,,,,,,,415.5824313,415.5958939,416.0957977,416.08014669999994,416.0801933999999,416.0957977,416.3028569,416.28009719999994,416.2801476,416.3028569,416.3028569,416.3028569,416.8122878,416.8122878,417.88020579999994,['z'],[1.5751003999999966],[None],,,,,,,,,,,,,,,,,,,,,,,,,,,,,,,,,,,,,,,,,,,,,,,,,,,,,,320307,001,2024-07-30_13h16.21.027,final,2024.1.5,None,2024-07-30 13h16.25.135378 +0530,
images/4n.tiff,images/18n.tiff,,,,,,,,,,,1,3,9,0,,,,,,,,,417.8947969,,,,,,,,,,,,,,,,,,,,,,,,,,,,,,,,,,,,,,,,,,,,,,,,,,,,,,,,,,,417.88134599999995,417.8947969,418.3949224,418.3787309,418.37875449999996,418.3949224,418.60013769999995,418.57935779999997,418.5794037,418.60013769999995,418.60013769999995,418.60013769999995,419.1115246,419.1115246,419.81301019999995,['m'],[1.205343599999992],[None],,,,,,,,,,,,,,,,,,,,,,,,,,,,,,,,,,,,,,,,,,,,,,,,,,,,,,320307,001,2024-07-30_13h16.21.027,final,2024.1.5,None,2024-07-30 13h16.25.135378 +0530,
images/18n.tiff,images/18n.tiff,,,,,,,,,,,1,4,10,5,,,,,,,,,419.82792409999996,,,,,,,,,,,,,,,,,,,,,,,,,,,,,,,,,,,,,,,,,,,,,,,,,,,,,,,,,,,419.8146436,419.82792409999996,420.3277662,420.3119899,420.3120337,420.3277662,420.53452469999996,420.5120093,420.5120593,420.53452469999996,420.53452469999996,420.53452469999996,421.04410979999994,421.04410979999994,421.87889609999996,['z'],[1.3269675000000234],[None],,,,,,,,,,,,,,,,,,,,,,,,,,,,,,,,,,,,,,,,,,,,,,,,,,,,,,320307,001,2024-07-30_13h16.21.027,final,2024.1.5,None,2024-07-30 13h16.25.135378 +0530,
images/18n.tiff,images/4n.tiff,,,,,,,,,,,1,5,11,2,,,,,,,,,421.89360500000004,,,,,,,,,,,,,,,,,,,,,,,,,,,,,,,,,,,,,,,,,,,,,,,,,,,,,,,,,,,421.8803754,421.89360500000004,422.39368529999996,422.3780807,422.3781267,422.39368529999996,422.59930130000004,422.5780141999999,422.57806539999996,422.59930130000004,422.59930130000004,422.59930130000004,423.1101806,423.1101806,427.22704759999993,['m'],[4.614955800000075],[None],,,,,,,,,,,,,,,,,,,,,,,,,,,,,,,,,,,,,,,,,,,,,,,,,,,,,,320307,001,2024-07-30_13h16.21.027,final,2024.1.5,None,2024-07-30 13h16.25.135378 +0530,
images/4n.tiff,images/4n.tiff,,,,,,,,,,,2,0,12,4,,,,,,,,,427.2421328,,,,,,,,,,,,,,,,,,,,,,,,,,,,,,,,,,,,,,,,,,,,,,,,,,,,,,,,,,,427.22816729999994,427.2421328,427.7419471,427.726338,427.72638939999996,427.7419471,427.9479912,427.92629329999994,427.9263398,427.9479912,427.9479912,427.9479912,428.4584809,428.4584809,429.3602434,['z'],[1.401923399999987],[None],,,,,,,,,,,,,,,,,,,,,,,,,,,,,,,,,,,,,,,,,,,,,,,,,,,,,,320307,001,2024-07-30_13h16.21.027,final,2024.1.5,None,2024-07-30 13h16.25.135378 +0530,
images/18n.tiff,images/18n.tiff,,,,,,,,,,,2,1,13,3,,,,,,,,,429.3748169,,,,,,,,,,,,,,,,,,,,,,,,,,,,,,,,,,,,,,,,,,,,,,,,,,,,,,,,,,,429.3617658,429.3748169,429.87470189999993,429.85898489999994,429.859033,429.87470189999993,430.0806987,430.05885229999996,430.05890989999995,430.0806987,430.0806987,430.0806987,430.5910082,430.5910082,431.47624189999993,['z'],[1.381077600000026],[None],,,,,,,,,,,,,,,,,,,,,,,,,,,,,,,,,,,,,,,,,,,,,,,,,,,,,,320307,001,2024-07-30_13h16.21.027,final,2024.1.5,None,2024-07-30 13h16.25.135378 +0530,
images/4n.tiff,images/18n.tiff,,,,,,,,,,,2,2,14,0,,,,,,,,,431.49070979999993,,,,,,,,,,,,,,,,,,,,,,,,,,,,,,,,,,,,,,,,,,,,,,,,,,,,,,,,,,,431.47786289999993,431.49070979999993,431.99058269999995,431.9750638,431.9751124,431.99058269999995,432.19726180000004,432.1749236,432.1749733,432.19726180000004,432.19726180000004,432.19726180000004,432.70706149999995,432.70706149999995,433.6256741,['m'],[1.4244840999999724],[None],,,,,,,,,,,,,,,,,,,,,,,,,,,,,,,,,,,,,,,,,,,,,,,,,,,,,,320307,001,2024-07-30_13h16.21.027,final,2024.1.5,None,2024-07-30 13h16.25.135378 +0530,
images/18n.tiff,images/18n.tiff,,,,,,,,,,,2,3,15,5,,,,,,,,,433.6399813,,,,,,,,,,,,,,,,,,,,,,,,,,,,,,,,,,,,,,,,,,,,,,,,,,,,,,,,,,,433.62721819999996,433.6399813,434.13984679999993,434.12419729999993,434.124246,434.13984679999993,434.3463732999999,434.3241694,434.3242218,434.3463732999999,434.3463732999999,434.3463732999999,434.85637449999996,434.85637449999996,436.04142959999996,['z'],[1.6910910000000285],[None],,,,,,,,,,,,,,,,,,,,,,,,,,,,,,,,,,,,,,,,,,,,,,,,,,,,,,320307,001,2024-07-30_13h16.21.027,final,2024.1.5,None,2024-07-30 13h16.25.135378 +0530,
images/4n.tiff,images/4n.tiff,,,,,,,,,,,2,4,16,1,,,,,,,,,436.05594990000003,,,,,,,,,,,,,,,,,,,,,,,,,,,,,,,,,,,,,,,,,,,,,,,,,,,,,,,,,,,436.04301619999995,436.05594990000003,436.55580330000004,436.5400235,436.54007429999996,436.55580330000004,436.7642314,436.73990169999996,436.7399499,436.7642314,436.7642314,436.7642314,437.2722484,437.2722484,438.5571726,['z'],[1.7774752999999919],[None],,,,,,,,,,,,,,,,,,,,,,,,,,,,,,,,,,,,,,,,,,,,,,,,,,,,,,320307,001,2024-07-30_13h16.21.027,final,2024.1.5,None,2024-07-30 13h16.25.135378 +0530,
images/18n.tiff,images/4n.tiff,,,,,,,,,,,2,5,17,2,,,,,,,,,438.57181869999994,,,,,,,,,,,,,,,,,,,,,,,,,,,,,,,,,,,,,,,,,,,,,,,,,,,,,,,,,,,438.5586269,438.57181869999994,439.0716051,439.0559649,439.0560169,439.0716051,439.2777911,439.2558691,439.2559161,439.2777911,439.2777911,439.2777911,439.7879321,439.7879321,441.33946699999996,['m'],[2.0558403],[None],,,,,,,,,,,,,,,,,,,,,,,,,,,,,,,,,,,,,,,,,,,,,,,,,,,,,,320307,001,2024-07-30_13h16.21.027,final,2024.1.5,None,2024-07-30 13h16.25.135378 +0530,
images/18n.tiff,images/4n.tiff,,,,,,,,,,,3,0,18,2,,,,,,,,,441.3541906,,,,,,,,,,,,,,,,,,,,,,,,,,,,,,,,,,,,,,,,,,,,,,,,,,,,,,,,,,,441.3411799,441.3541906,441.85406489999997,441.838234,441.83828209999996,441.85406489999997,442.06026149999997,442.03818469999993,442.0382345,442.06026149999997,442.06026149999997,442.06026149999997,442.570491,442.570491,443.672252,['m'],[1.601137900000026],[None],,,,,,,,,,,,,,,,,,,,,,,,,,,,,,,,,,,,,,,,,,,,,,,,,,,,,,320307,001,2024-07-30_13h16.21.027,final,2024.1.5,None,2024-07-30 13h16.25.135378 +0530,
images/4n.tiff,images/4n.tiff,,,,,,,,,,,3,1,19,1,,,,,,,,,443.6867044,,,,,,,,,,,,,,,,,,,,,,,,,,,,,,,,,,,,,,,,,,,,,,,,,,,,,,,,,,,443.67395319999997,443.6867044,444.18655440000003,444.1709438,444.170989,444.18655440000003,444.3948162,444.3709478,444.3709984,444.3948162,444.3948162,444.3948162,444.9030317,444.9030317,445.90468689999994,['z'],[1.5072582999999895],[None],,,,,,,,,,,,,,,,,,,,,,,,,,,,,,,,,,,,,,,,,,,,,,,,,,,,,,320307,001,2024-07-30_13h16.21.027,final,2024.1.5,None,2024-07-30 13h16.25.135378 +0530,
images/4n.tiff,images/4n.tiff,,,,,,,,,,,3,2,20,4,,,,,,,,,445.91909730000003,,,,,,,,,,,,,,,,,,,,,,,,,,,,,,,,,,,,,,,,,,,,,,,,,,,,,,,,,,,445.9061374,445.91909730000003,446.41917099999995,446.40352379999996,446.40357349999994,446.41917099999995,446.6255223,446.60345079999996,446.6035011999999,446.6255223,446.6255223,446.6255223,447.1355663,447.1355663,448.37042030000003,['z'],[1.7327390000000378],[None],,,,,,,,,,,,,,,,,,,,,,,,,,,,,,,,,,,,,,,,,,,,,,,,,,,,,,320307,001,2024-07-30_13h16.21.027,final,2024.1.5,None,2024-07-30 13h16.25.135378 +0530,
images/18n.tiff,images/18n.tiff,,,,,,,,,,,3,3,21,5,,,,,,,,,448.38510489999993,,,,,,,,,,,,,,,,,,,,,,,,,,,,,,,,,,,,,,,,,,,,,,,,,,,,,,,,,,,448.3720517,448.38510489999993,448.88500259999995,448.86934449999995,448.86939679999995,448.88500259999995,449.0912001,449.0692903,449.06934729999995,449.0912001,449.0912001,449.0912001,449.60150819999996,449.60150819999996,451.05299510000003,['z'],[1.9551291999999876],[None],,,,,,,,,,,,,,,,,,,,,,,,,,,,,,,,,,,,,,,,,,,,,,,,,,,,,,320307,001,2024-07-30_13h16.21.027,final,2024.1.5,None,2024-07-30 13h16.25.135378 +0530,
images/4n.tiff,images/18n.tiff,,,,,,,,,,,3,4,22,0,,,,,,,,,451.0676573,,,,,,,,,,,,,,,,,,,,,,,,,,,,,,,,,,,,,,,,,,,,,,,,,,,,,,,,,,,451.05462029999995,451.0676573,451.56756,451.55192859999994,451.55198279999996,451.56756,451.7733625,451.7518701999999,451.75192969999995,451.7733625,451.7733625,451.7733625,452.28391629999993,452.28391629999993,453.2858593,['m'],[1.5042574999999943],[None],,,,,,,,,,,,,,,,,,,,,,,,,,,,,,,,,,,,,,,,,,,,,,,,,,,,,,320307,001,2024-07-30_13h16.21.027,final,2024.1.5,None,2024-07-30 13h16.25.135378 +0530,
images/18n.tiff,images/18n.tiff,,,,,,,,,,,3,5,23,3,,,,,,,,,453.30026619999995,,,,,,,,,,,,,,,,,,,,,,,,,,,,,,,,,,,,,,,,,,,,,,,,,,,,,,,,,,,453.2873344,453.30026619999995,453.80013919999993,453.78446030000003,453.78450919999995,453.80013919999993,454.0072128,453.9840661,453.984118,454.0072128,454.0072128,454.0072128,454.5165814,454.5165814,455.48512109999996,['z'],[1.4710721000000149],[None],,,,,,,,,,,,,,,,,,,,,,,,,,,,,,,,,,,,,,,,,,,,,,,,,,,,,,320307,001,2024-07-30_13h16.21.027,final,2024.1.5,None,2024-07-30 13h16.25.135378 +0530,
images/4n.tiff,images/4n.tiff,,,,,,,,,,,4,0,24,1,,,,,,,,,455.49956689999993,,,,,,,,,,,,,,,,,,,,,,,,,,,,,,,,,,,,,,,,,,,,,,,,,,,,,,,,,,,455.4868783,455.49956689999993,455.99941659999996,455.98360610000003,455.9836562,455.99941659999996,456.2049097,456.18373749999995,456.1837844,456.2049097,456.2049097,456.2049097,456.7158464,456.7158464,457.4675739,['z'],[1.2484410999999227],[None],,,,,,,,,,,,,,,,,,,,,,,,,,,,,,,,,,,,,,,,,,,,,,,,,,,,,,320307,001,2024-07-30_13h16.21.027,final,2024.1.5,None,2024-07-30 13h16.25.135378 +0530,
images/4n.tiff,images/4n.tiff,,,,,,,,,,,4,1,25,4,,,,,,,,,457.4821705,,,,,,,,,,,,,,,,,,,,,,,,,,,,,,,,,,,,,,,,,,,,,,,,,,,,,,,,,,,457.46922649999993,457.4821705,457.98174109999997,457.966161,457.96621239999996,457.98174109999997,458.1892093999999,458.1664814,458.16653319999995,458.1892093999999,458.1892093999999,458.1892093999999,458.6985133,458.6985133,460.21671769999995,['z'],[2.016283499999986],[None],,,,,,,,,,,,,,,,,,,,,,,,,,,,,,,,,,,,,,,,,,,,,,,,,,,,,,320307,001,2024-07-30_13h16.21.027,final,2024.1.5,None,2024-07-30 13h16.25.135378 +0530,
images/4n.tiff,images/18n.tiff,,,,,,,,,,,4,2,26,0,,,,,,,,,460.23117510000003,,,,,,,,,,,,,,,,,,,,,,,,,,,,,,,,,,,,,,,,,,,,,,,,,,,,,,,,,,,460.21814019999994,460.23117510000003,460.73109919999996,460.7155574,460.7156064,460.73109919999996,460.9340485999999,460.91485059999997,460.9148687,460.9340485999999,460.9340485999999,460.9340485999999,461.44735569999995,461.44735569999995,462.2152664999999,['m'],[1.2641897000000881],[None],,,,,,,,,,,,,,,,,,,,,,,,,,,,,,,,,,,,,,,,,,,,,,,,,,,,,,320307,001,2024-07-30_13h16.21.027,final,2024.1.5,None,2024-07-30 13h16.25.135378 +0530,
images/18n.tiff,images/18n.tiff,,,,,,,,,,,4,3,27,3,,,,,,,,,462.2305769,,,,,,,,,,,,,,,,,,,,,,,,,,,,,,,,,,,,,,,,,,,,,,,,,,,,,,,,,,,462.2164899,462.2305769,462.73048539999996,462.71483870000003,462.7148874,462.73048539999996,462.93674219999997,462.9147722999999,462.9148217,462.93674219999997,462.93674219999997,462.93674219999997,463.44695210000003,463.44695210000003,464.5802454,['z'],[1.6365296000000171],[None],,,,,,,,,,,,,,,,,,,,,,,,,,,,,,,,,,,,,,,,,,,,,,,,,,,,,,320307,001,2024-07-30_13h16.21.027,final,2024.1.5,None,2024-07-30 13h16.25.135378 +0530,
images/18n.tiff,images/18n.tiff,,,,,,,,,,,4,4,28,5,,,,,,,,,464.59632819999996,,,,,,,,,,,,,,,,,,,,,,,,,,,,,,,,,,,,,,,,,,,,,,,,,,,,,,,,,,,464.58078489999997,464.59632819999996,465.09643839999995,465.08069040000004,465.0807379,465.09643839999995,465.30302090000004,465.2805715,465.28061999999994,465.30302090000004,465.30302090000004,465.30302090000004,465.81286659999995,465.81286659999995,466.82978439999994,['z'],[1.511148300000059],[None],,,,,,,,,,,,,,,,,,,,,,,,,,,,,,,,,,,,,,,,,,,,,,,,,,,,,,320307,001,2024-07-30_13h16.21.027,final,2024.1.5,None,2024-07-30 13h16.25.135378 +0530,
images/18n.tiff,images/4n.tiff,,,,,,,,,,,4,5,29,2,,,,,,,,,466.84554309999993,,,,,,,,,,,,,,,,,,,,,,,,,,,,,,,,,,,,,,,,,,,,,,,,,,,,,,,,,,,466.8307342,466.84554309999993,467.3456957,467.3301141,467.3301654,467.3456957,467.5508328,467.52997320000003,467.53002380000004,467.5508328,467.5508328,467.5508328,468.0620919,468.0620919,469.27886540000003,['m'],[1.7272104999999556],[None],,,,,,,,,,,,,,,,,,,,,,,,,,,,,,,,,,,,,,,,,,,,,,,,,,,,,,320307,001,2024-07-30_13h16.21.027,final,2024.1.5,None,2024-07-30 13h16.25.135378 +0530,
images/18n.tiff,images/4n.tiff,,,,,,,,,,,5,0,30,2,,,,,,,,,469.29477919999994,,,,,,,,,,,,,,,,,,,,,,,,,,,,,,,,,,,,,,,,,,,,,,,,,,,,,,,,,,,469.2793549,469.29477919999994,469.7946542,469.7780999,469.77811149999997,469.7946542,469.99552909999994,469.97820889999997,469.97822389999993,469.99552909999994,469.99552909999994,469.99552909999994,470.4946623,470.4946623,471.6127853,['m'],[1.6027073999999857],[None],,,,,,,,,,,,,,,,,,,,,,,,,,,,,,,,,,,,,,,,,,,,,,,,,,,,,,320307,001,2024-07-30_13h16.21.027,final,2024.1.5,None,2024-07-30 13h16.25.135378 +0530,
images/18n.tiff,images/18n.tiff,,,,,,,,,,,5,1,31,3,,,,,,,,,471.6274673,,,,,,,,,,,,,,,,,,,,,,,,,,,,,,,,,,,,,,,,,,,,,,,,,,,,,,,,,,,471.6144887,471.6274673,472.12731579999996,472.11173660000003,472.1117847,472.12731579999996,472.3323667,472.31178389999997,472.3118381,472.3323667,472.3323667,472.3323667,472.8437974,472.8437974,474.16172190000003,['z'],[1.817692299999976],[None],,,,,,,,,,,,,,,,,,,,,,,,,,,,,,,,,,,,,,,,,,,,,,,,,,,,,,320307,001,2024-07-30_13h16.21.027,final,2024.1.5,None,2024-07-30 13h16.25.135378 +0530,
images/4n.tiff,images/4n.tiff,,,,,,,,,,,5,2,32,1,,,,,,,,,474.1764668,,,,,,,,,,,,,,,,,,,,,,,,,,,,,,,,,,,,,,,,,,,,,,,,,,,,,,,,,,,474.1633477,474.1764668,474.67637210000004,474.6611006,474.6611495,474.67637210000004,474.8820688,474.8608525,474.86090069999995,474.8820688,474.8820688,474.8820688,475.3929876,475.3929876,477.04318010000003,['z'],[2.1558092000000215],[None],,,,,,,,,,,,,,,,,,,,,,,,,,,,,,,,,,,,,,,,,,,,,,,,,,,,,,320307,001,2024-07-30_13h16.21.027,final,2024.1.5,None,2024-07-30 13h16.25.135378 +0530,
images/4n.tiff,images/18n.tiff,,,,,,,,,,,5,3,33,0,,,,,,,,,477.0590043,,,,,,,,,,,,,,,,,,,,,,,,,,,,,,,,,,,,,,,,,,,,,,,,,,,,,,,,,,,477.04367629999996,477.0590043,477.5590137,477.54335280000004,477.54340099999996,477.5590137,477.7660186,477.743228,477.743277,477.7660186,477.7660186,477.7660186,478.27534339999994,478.27534339999994,479.2106845,['m'],[1.4319221000000653],[None],,,,,,,,,,,,,,,,,,,,,,,,,,,,,,,,,,,,,,,,,,,,,,,,,,,,,,320307,001,2024-07-30_13h16.21.027,final,2024.1.5,None,2024-07-30 13h16.25.135378 +0530,
images/4n.tiff,images/4n.tiff,,,,,,,,,,,5,4,34,4,,,,,,,,,479.2250568,,,,,,,,,,,,,,,,,,,,,,,,,,,,,,,,,,,,,,,,,,,,,,,,,,,,,,,,,,,479.21216669999995,479.2250568,479.7248692,479.7092869,479.70933499999995,479.7248692,479.93162939999996,479.9091432999999,479.90919349999996,479.93162939999996,479.93162939999996,479.93162939999996,480.44138730000003,480.44138730000003,481.5262382,['z'],[1.5784224999999878],[None],,,,,,,,,,,,,,,,,,,,,,,,,,,,,,,,,,,,,,,,,,,,,,,,,,,,,,320307,001,2024-07-30_13h16.21.027,final,2024.1.5,None,2024-07-30 13h16.25.135378 +0530,
images/18n.tiff,images/18n.tiff,,,,,,,,,,,5,5,35,5,,,,,,,,,481.54102199999994,,,,,,,,,,,,,,,,,,,,,,,,,,,,,,,,,,,,,,,,,,,,,,,,,,,,,,,,,,,481.5278129,481.54102199999994,482.04087469999996,482.0251097,482.0251563,482.04087469999996,482.24723779999994,482.2249417,482.2249881999999,482.24723779999994,482.24723779999994,482.24723779999994,482.75720699999994,482.75720699999994,485.09185510000003,['z'],[2.8388314999999693],[None],,,,,,,,,,,,,,,,,,,,,,,,,,,,,,,,,,,,,,,,,,,,,,,,,,,,,,320307,001,2024-07-30_13h16.21.027,final,2024.1.5,None,2024-07-30 13h16.25.135378 +0530,
images/4n.tiff,images/4n.tiff,,,,,,,,,,,6,0,36,1,,,,,,,,,485.1064585,,,,,,,,,,,,,,,,,,,,,,,,,,,,,,,,,,,,,,,,,,,,,,,,,,,,,,,,,,,485.0933518,485.1064585,485.60617080000003,485.5898435,485.58986079999994,485.60617080000003,485.8070869,485.78992439999996,485.78993499999996,485.8070869,485.8070869,485.8070869,486.3060767,486.3060767,487.32466199999993,['z'],[1.5022837999999865],[None],,,,,,,,,,,,,,,,,,,,,,,,,,,,,,,,,,,,,,,,,,,,,,,,,,,,,,320307,001,2024-07-30_13h16.21.027,final,2024.1.5,None,2024-07-30 13h16.25.135378 +0530,
images/4n.tiff,images/4n.tiff,,,,,,,,,,,6,1,37,4,,,,,,,,,487.33911789999996,,,,,,,,,,,,,,,,,,,,,,,,,,,,,,,,,,,,,,,,,,,,,,,,,,,,,,,,,,,487.3264546,487.33911789999996,487.838774,487.82233549999995,487.8223519,487.838774,488.03963830000004,488.0222481,488.02225859999993,488.03963830000004,488.03963830000004,488.03963830000004,488.5387592,488.5387592,490.8400062,['z'],[2.790429099999983],[None],,,,,,,,,,,,,,,,,,,,,,,,,,,,,,,,,,,,,,,,,,,,,,,,,,,,,,320307,001,2024-07-30_13h16.21.027,final,2024.1.5,None,2024-07-30 13h16.25.135378 +0530,
images/18n.tiff,images/18n.tiff,,,,,,,,,,,6,2,38,3,,,,,,,,,490.85459969999994,,,,,,,,,,,,,,,,,,,,,,,,,,,,,,,,,,,,,,,,,,,,,,,,,,,,,,,,,,,490.84160449999996,490.85459969999994,491.35445009999995,491.3386674,491.338733,491.35445009999995,491.5607276,491.5388853,491.5389377999999,491.5607276,491.5607276,491.5607276,492.0708248,492.0708248,492.92244750000003,['z'],[1.3486787000000504],[None],,,,,,,,,,,,,,,,,,,,,,,,,,,,,,,,,,,,,,,,,,,,,,,,,,,,,,320307,001,2024-07-30_13h16.21.027,final,2024.1.5,None,2024-07-30 13h16.25.135378 +0530,
images/18n.tiff,images/4n.tiff,,,,,,,,,,,6,3,39,2,,,,,,,,,492.9372215,,,,,,,,,,,,,,,,,,,,,,,,,,,,,,,,,,,,,,,,,,,,,,,,,,,,,,,,,,,492.9241205,492.9372215,493.437122,493.4214175,493.42146769999994,493.437122,493.64367609999994,493.62130229999997,493.62135529999995,493.64367609999994,493.64367609999994,493.64367609999994,494.15354899999994,494.15354899999994,495.50521829999997,['m'],[1.8577527999999575],[None],,,,,,,,,,,,,,,,,,,,,,,,,,,,,,,,,,,,,,,,,,,,,,,,,,,,,,320307,001,2024-07-30_13h16.21.027,final,2024.1.5,None,2024-07-30 13h16.25.135378 +0530,
images/4n.tiff,images/18n.tiff,,,,,,,,,,,6,4,40,0,,,,,,,,,495.51964689999994,,,,,,,,,,,,,,,,,,,,,,,,,,,,,,,,,,,,,,,,,,,,,,,,,,,,,,,,,,,495.50668149999996,495.51964689999994,496.01950659999994,496.00388300000003,496.0039321,496.01950659999994,496.22659400000003,496.20393459999997,496.20398259999996,496.22659400000003,496.22659400000003,496.22659400000003,496.7358037999999,496.7358037999999,497.4213345,['m'],[1.1874981000000844],[None],,,,,,,,,,,,,,,,,,,,,,,,,,,,,,,,,,,,,,,,,,,,,,,,,,,,,,320307,001,2024-07-30_13h16.21.027,final,2024.1.5,None,2024-07-30 13h16.25.135378 +0530,
images/18n.tiff,images/18n.tiff,,,,,,,,,,,6,5,41,5,,,,,,,,,497.4357965,,,,,,,,,,,,,,,,,,,,,,,,,,,,,,,,,,,,,,,,,,,,,,,,,,,,,,,,,,,497.4229022,497.4357965,497.9356052,497.9198055,497.91984799999994,497.9356052,498.1444274,498.11984149999995,498.1198906,498.1444274,498.1444274,498.1444274,498.6520179,498.6520179,500.3186024,['m'],[2.165401299999985],[None],,,,,,,,,,,,,,,,,,,,,,,,,,,,,,,,,,,,,,,,,,,,,,,,,,,,,,320307,001,2024-07-30_13h16.21.027,final,2024.1.5,None,2024-07-30 13h16.25.135378 +0530,
images/18n.tiff,images/18n.tiff,,,,,,,,,,,7,0,42,5,,,,,,,,,500.334626,,,,,,,,,,,,,,,,,,,,,,,,,,,,,,,,,,,,,,,,,,,,,,,,,,,,,,,,,,,500.31917070000003,500.334626,500.8346869,500.8190652,500.8191123,500.8346869,501.04238749999996,501.0189492,501.01899729999997,501.04238749999996,501.04238749999996,501.04238749999996,501.5510089,501.5510089,504.2023195,['z'],[3.147543799999994],[None],,,,,,,,,,,,,,,,,,,,,,,,,,,,,,,,,,,,,,,,,,,,,,,,,,,,,,320307,001,2024-07-30_13h16.21.027,final,2024.1.5,None,2024-07-30 13h16.25.135378 +0530,
images/4n.tiff,images/4n.tiff,,,,,,,,,,,7,1,43,1,,,,,,,,,504.21681859999995,,,,,,,,,,,,,,,,,,,,,,,,,,,,,,,,,,,,,,,,,,,,,,,,,,,,,,,,,,,504.2038111,504.21681859999995,504.71661709999995,504.70033859999995,504.70035939999997,504.71661709999995,504.9238314,504.90096109999996,504.901009,504.9238314,504.9238314,504.9238314,505.4331348,505.4331348,509.91711489999994,['z'],[4.986187399999949],[None],,,,,,,,,,,,,,,,,,,,,,,,,,,,,,,,,,,,,,,,,,,,,,,,,,,,,,320307,001,2024-07-30_13h16.21.027,final,2024.1.5,None,2024-07-30 13h16.25.135378 +0530,
images/18n.tiff,images/18n.tiff,,,,,,,,,,,7,2,44,3,,,,,,,,,509.93169819999997,,,,,,,,,,,,,,,,,,,,,,,,,,,,,,,,,,,,,,,,,,,,,,,,,,,,,,,,,,,509.9188419,509.93169819999997,510.4315387,510.41574239999994,510.41577349999994,510.4315387,510.6483513,510.61568529999994,510.61572970000003,510.6483513,510.6483513,510.6483513,511.1479513,511.1479513,512.2166192,['z'],[1.5660921000000485],[None],,,,,,,,,,,,,,,,,,,,,,,,,,,,,,,,,,,,,,,,,,,,,,,,,,,,,,320307,001,2024-07-30_13h16.21.027,final,2024.1.5,None,2024-07-30 13h16.25.135378 +0530,
images/4n.tiff,images/18n.tiff,,,,,,,,,,,7,3,45,0,,,,,,,,,512.2309367999999,,,,,,,,,,,,,,,,,,,,,,,,,,,,,,,,,,,,,,,,,,,,,,,,,,,,,,,,,,,512.2182703000001,512.2309367999999,512.7306279,512.7152346,512.7153304999999,512.7306279,512.9371610999999,512.9148797999999,512.914941,512.9371610999999,512.9371610999999,512.9371610999999,513.4472163,513.4472163,514.1987821999999,['m'],[1.2446133000000827],[None],,,,,,,,,,,,,,,,,,,,,,,,,,,,,,,,,,,,,,,,,,,,,,,,,,,,,,320307,001,2024-07-30_13h16.21.027,final,2024.1.5,None,2024-07-30 13h16.25.135378 +0530,
images/18n.tiff,images/4n.tiff,,,,,,,,,,,7,4,46,2,,,,,,,,,514.2135291,,,,,,,,,,,,,,,,,,,,,,,,,,,,,,,,,,,,,,,,,,,,,,,,,,,,,,,,,,,514.2002336,514.2135291,514.7131663,514.6968872,514.6968995,514.7131663,514.9141999999999,514.8969043,514.8969173,514.9141999999999,514.9141999999999,514.9141999999999,515.413147,515.413147,516.3816554,['z'],[1.451387000000068],[None],,,,,,,,,,,,,,,,,,,,,,,,,,,,,,,,,,,,,,,,,,,,,,,,,,,,,,320307,001,2024-07-30_13h16.21.027,final,2024.1.5,None,2024-07-30 13h16.25.135378 +0530,
images/4n.tiff,images/4n.tiff,,,,,,,,,,,7,5,47,4,,,,,,,,,516.396234,,,,,,,,,,,,,,,,,,,,,,,,,,,,,,,,,,,,,,,,,,,,,,,,,,,,,,,,,,,516.3832276,516.396234,516.895816,516.8793759,516.8793883000001,516.895816,517.0967238999999,517.0794595,517.0794716999999,517.0967238999999,517.0967238999999,517.0967238999999,517.5957942,517.5957942,518.5139907999999,['z'],[1.4051830000000791],[None],,,,,,,,,,,,,,,,,,,,,,,,,,,,,,,,,,,,,,,,,,,,,,,,,,,,,,320307,001,2024-07-30_13h16.21.027,final,2024.1.5,None,2024-07-30 13h16.25.135378 +0530,
images/4n.tiff,images/18n.tiff,,,,,,,,,,,8,0,48,0,,,,,,,,,518.5288679999999,,,,,,,,,,,,,,,,,,,,,,,,,,,,,,,,,,,,,,,,,,,,,,,,,,,,,,,,,,,518.5154269,518.5288679999999,519.0285584000001,519.0130208,519.0130707000001,519.0285584000001,519.2293603,519.2117648999999,519.2117773,519.2293603,519.2293603,519.2293603,519.7284769,519.7284769,521.6455349,['m'],[2.400191000000177],[None],,,,,,,,,,,,,,,,,,,,,,,,,,,,,,,,,,,,,,,,,,,,,,,,,,,,,,320307,001,2024-07-30_13h16.21.027,final,2024.1.5,None,2024-07-30 13h16.25.135378 +0530,
images/18n.tiff,images/18n.tiff,,,,,,,,,,,8,1,49,3,,,,,,,,,521.6609627,,,,,,,,,,,,,,,,,,,,,,,,,,,,,,,,,,,,,,,,,,,,,,,,,,,,,,,,,,,521.646207,521.6609627,522.1608825000001,522.1453414,522.1453935,522.1608825000001,522.3677663999999,522.3449728999999,522.3450210999999,522.3677663999999,522.3677663999999,522.3677663999999,522.8774106999999,522.8774106999999,523.9295480999999,['z'],[1.55791360000012],[None],,,,,,,,,,,,,,,,,,,,,,,,,,,,,,,,,,,,,,,,,,,,,,,,,,,,,,320307,001,2024-07-30_13h16.21.027,final,2024.1.5,None,2024-07-30 13h16.25.135378 +0530,
images/18n.tiff,images/4n.tiff,,,,,,,,,,,8,2,50,2,,,,,,,,,523.9437510999999,,,,,,,,,,,,,,,,,,,,,,,,,,,,,,,,,,,,,,,,,,,,,,,,,,,,,,,,,,,523.9312613,523.9437510999999,524.4435716999999,524.4279469999999,524.4279982999999,524.4435716999999,524.6500457,524.6278874,524.6279365,524.6500457,524.6500457,524.6500457,525.1599636999999,525.1599636999999,525.9934046999999,['m'],[1.3397240000001602],[None],,,,,,,,,,,,,,,,,,,,,,,,,,,,,,,,,,,,,,,,,,,,,,,,,,,,,,320307,001,2024-07-30_13h16.21.027,final,2024.1.5,None,2024-07-30 13h16.25.135378 +0530,
images/18n.tiff,images/18n.tiff,,,,,,,,,,,8,3,51,5,,,,,,,,,526.0094766,,,,,,,,,,,,,,,,,,,,,,,,,,,,,,,,,,,,,,,,,,,,,,,,,,,,,,,,,,,525.9937378,526.0094766,526.5094910999999,526.4932248,526.4932534,526.5094910999999,526.7162897000001,526.6937997,526.6938488999999,526.7162897000001,526.7162897000001,526.7162897000001,527.2259446,527.2259446,529.4273479000001,['z'],[2.7051137999999355],[None],,,,,,,,,,,,,,,,,,,,,,,,,,,,,,,,,,,,,,,,,,,,,,,,,,,,,,320307,001,2024-07-30_13h16.21.027,final,2024.1.5,None,2024-07-30 13h16.25.135378 +0530,
images/4n.tiff,images/4n.tiff,,,,,,,,,,,8,4,52,1,,,,,,,,,529.4418788,,,,,,,,,,,,,,,,,,,,,,,,,,,,,,,,,,,,,,,,,,,,,,,,,,,,,,,,,,,529.4290209999999,529.4418788,529.9417549,529.9261535999999,529.9262080999999,529.9417549,530.1495817,530.1260288999999,530.1260774,530.1495817,530.1495817,530.1495817,530.6581581,530.6581581,531.4600146,['z'],[1.3038122000000385],[None],,,,,,,,,,,,,,,,,,,,,,,,,,,,,,,,,,,,,,,,,,,,,,,,,,,,,,320307,001,2024-07-30_13h16.21.027,final,2024.1.5,None,2024-07-30 13h16.25.135378 +0530,
images/4n.tiff,images/4n.tiff,,,,,,,,,,,8,5,53,4,,,,,,,,,531.4745396999999,,,,,,,,,,,,,,,,,,,,,,,,,,,,,,,,,,,,,,,,,,,,,,,,,,,,,,,,,,,531.4616434,531.4745396999999,531.9744481999999,531.9586253,531.9586738999999,531.9744481999999,532.1808874000001,532.1585822,532.1586295,532.1808874000001,532.1808874000001,532.1808874000001,532.6908028,532.6908028,534.8737085999999,['z'],[2.6809204000001046],[None],,,,,,,,,,,,,,,,,,,,,,,,,,,,,,,,,,,,,,,,,,,,,,,,,,,,,,320307,001,2024-07-30_13h16.21.027,final,2024.1.5,None,2024-07-30 13h16.25.135378 +0530,
images/18n.tiff,images/4n.tiff,,,,,,,,,,,9,0,54,2,,,,,,,,,534.8898892,,,,,,,,,,,,,,,,,,,,,,,,,,,,,,,,,,,,,,,,,,,,,,,,,,,,,,,,,,,534.8740037,534.8898892,535.3899971999999,535.3742672000001,535.3743152,535.3899971999999,535.5977661,535.5743047000001,535.5743568999999,535.5977661,535.5977661,535.5977661,536.1063495999999,536.1063495999999,537.8231198000001,['m'],[2.223640800000112],[None],,,,,,,,,,,,,,,,,,,,,,,,,,,,,,,,,,,,,,,,,,,,,,,,,,,,,,320307,001,2024-07-30_13h16.21.027,final,2024.1.5,None,2024-07-30 13h16.25.135378 +0530,
images/18n.tiff,images/18n.tiff,,,,,,,,,,,9,1,55,5,,,,,,,,,537.8390734,,,,,,,,,,,,,,,,,,,,,,,,,,,,,,,,,,,,,,,,,,,,,,,,,,,,,,,,,,,537.8236165999999,537.8390734,538.3389976999999,538.3233574000001,538.3234207,538.3389976999999,538.5458833,538.5232718,538.5233211,538.5458833,538.5458833,538.5458833,539.0553279999999,539.0553279999999,539.9236928999999,['z'],[1.3721433000000616],[None],,,,,,,,,,,,,,,,,,,,,,,,,,,,,,,,,,,,,,,,,,,,,,,,,,,,,,320307,001,2024-07-30_13h16.21.027,final,2024.1.5,None,2024-07-30 13h16.25.135378 +0530,
images/4n.tiff,images/4n.tiff,,,,,,,,,,,9,2,56,1,,,,,,,,,539.9383731999999,,,,,,,,,,,,,,,,,,,,,,,,,,,,,,,,,,,,,,,,,,,,,,,,,,,,,,,,,,,539.9253203999999,539.9383731999999,540.4383352,540.4226232999999,540.4226756999999,540.4383352,540.6459817,540.6225588,540.6226193,540.6459817,540.6459817,540.6459817,541.1544974999999,541.1544974999999,542.472182,['z'],[1.8084676000000854],[None],,,,,,,,,,,,,,,,,,,,,,,,,,,,,,,,,,,,,,,,,,,,,,,,,,,,,,320307,001,2024-07-30_13h16.21.027,final,2024.1.5,None,2024-07-30 13h16.25.135378 +0530,
images/4n.tiff,images/18n.tiff,,,,,,,,,,,9,3,57,0,,,,,,,,,542.4875996999999,,,,,,,,,,,,,,,,,,,,,,,,,,,,,,,,,,,,,,,,,,,,,,,,,,,,,,,,,,,542.4736958999999,542.4875996999999,542.9874588,542.9718123,542.9718591999999,542.9874588,543.1944263,543.1715945000001,543.1716418000001,543.1944263,543.1944263,543.1944263,543.7036774000001,543.7036774000001,544.5888324,['m'],[1.3868815000000723],[None],,,,,,,,,,,,,,,,,,,,,,,,,,,,,,,,,,,,,,,,,,,,,,,,,,,,,,320307,001,2024-07-30_13h16.21.027,final,2024.1.5,None,2024-07-30 13h16.25.135378 +0530,
images/4n.tiff,images/4n.tiff,,,,,,,,,,,9,4,58,4,,,,,,,,,544.6035214999999,,,,,,,,,,,,,,,,,,,,,,,,,,,,,,,,,,,,,,,,,,,,,,,,,,,,,,,,,,,544.5905369,544.6035214999999,545.1033031,545.0878729000001,545.087919,545.1033031,545.310207,545.2877851000001,545.2878331,545.310207,545.310207,545.310207,545.8198868,545.8198868,546.4717295999999,['z'],[1.1511194000001979],[None],,,,,,,,,,,,,,,,,,,,,,,,,,,,,,,,,,,,,,,,,,,,,,,,,,,,,,320307,001,2024-07-30_13h16.21.027,final,2024.1.5,None,2024-07-30 13h16.25.135378 +0530,
images/18n.tiff,images/18n.tiff,,,,,,,,,,,9,5,59,3,,,,,,,,,546.4862808,,,,,,,,,,,,,,,,,,,,,,,,,,,,,,,,,,,,,,,,,,,,,,,,,,,,,,,,,,,546.4733231999999,546.4862808,546.9861604,546.9704583,546.9705058,546.9861604,547.1926483,547.1705101,547.1705623999999,547.1926483,547.1926483,547.1926483,547.7025219,547.7025219,548.6041551000001,['z'],[1.3968747000001258],[None],,,,,,,,,,,,,,,,,,,,,,,,,,,,,,,,,,,,,,,,,,,,,,,,,,,,,,320307,001,2024-07-30_13h16.21.027,final,2024.1.5,None,2024-07-30 13h16.25.135378 +0530,
,,,,,,,,,,,,,,,,,,,,,,,,,,,,,,,,,,,,,,,,,,,,,,,,,,,,,,,,,,,,,,,,,,,,,,,,,,,,,,,,,,,,,,,,,,,,,,,,,,,,,548.6052368999999,548.618943,548.618943,555.7016125,space,7.074791699999878,None,,,,,,,,,,,,,,,,,,,,,,,,,,,,,,,,,,,,,,,,,,,,,,,320307,001,2024-07-30_13h16.21.027,final,2024.1.5,None,2024-07-30 13h16.25.135378 +0530,
images/5n.tiff,images/10n.tiff,,,,,,,,,,,,,,,0,0,0,3,,,,,555.7165736,,,,,,,,,,,,,,,,,,,,,,,,,,,,,,,,,,,,,,,,,,,,,,,,,,,,,,,,,,,,,,,,,,,,,,,,,,,,,,,,,,,,555.7096431,555.7165736,556.216467,556.2006045,556.2006501999999,556.216467,556.4306936999999,556.4006373,556.4006933000001,556.4306936999999,556.4306936999999,556.4306936999999,556.9328874999999,556.9328874999999,558.7671000999999,['m'],[2.3188340000001517],[None],,,,,,,,,,,,,,,,,,,,,,,,,,,,,320307,001,2024-07-30_13h16.21.027,final,2024.1.5,None,2024-07-30 13h16.25.135378 +0530,
images/18n.tiff,images/18n.tiff,,,,,,,,,,,,,,,0,1,1,4,,,,,558.7819529000001,,,,,,,,,,,,,,,,,,,,,,,,,,,,,,,,,,,,,,,,,,,,,,,,,,,,,,,,,,,,,,,,,,,,,,,,,,,,,,,,,,,,558.7693816000001,558.7819529000001,559.2821048999999,559.2663307,559.2663740999999,559.2821048999999,559.4827895999999,559.4655425999999,559.465553,559.4827895999999,559.4827895999999,559.4827895999999,559.9818545999999,559.9818545999999,561.5994238000001,['z'],[2.099454899999955],[None],,,,,,,,,,,,,,,,,,,,,,,,,,,,,320307,001,2024-07-30_13h16.21.027,final,2024.1.5,None,2024-07-30 13h16.25.135378 +0530,
images/10n.tiff,images/10n.tiff,,,,,,,,,,,,,,,0,2,2,11,,,,,561.6146340999999,,,,,,,,,,,,,,,,,,,,,,,,,,,,,,,,,,,,,,,,,,,,,,,,,,,,,,,,,,,,,,,,,,,,,,,,,,,,,,,,,,,,561.6010209000001,561.6146340999999,562.1144519,562.0986573,562.0987029999999,562.1144519,562.3197513,562.2986535,562.298697,562.3197513,562.3197513,562.3197513,562.8309978,562.8309978,564.7652926999999,['z'],[2.4383278000000246],[None],,,,,,,,,,,,,,,,,,,,,,,,,,,,,320307,001,2024-07-30_13h16.21.027,final,2024.1.5,None,2024-07-30 13h16.25.135378 +0530,
images/5n.tiff,images/5n.tiff,,,,,,,,,,,,,,,0,3,3,10,,,,,564.7802291,,,,,,,,,,,,,,,,,,,,,,,,,,,,,,,,,,,,,,,,,,,,,,,,,,,,,,,,,,,,,,,,,,,,,,,,,,,,,,,,,,,,564.7666572999999,564.7802291,565.2801228999999,565.2644152,565.2644716,565.2801228999999,565.4857638000001,565.4643103000001,565.4643561,565.4857638000001,565.4857638000001,565.4857638000001,565.9965098,565.9965098,568.9641068000001,['z'],[3.464084400000047],[None],,,,,,,,,,,,,,,,,,,,,,,,,,,,,320307,001,2024-07-30_13h16.21.027,final,2024.1.5,None,2024-07-30 13h16.25.135378 +0530,
images/4n.tiff,images/4n.tiff,,,,,,,,,,,,,,,0,4,4,0,,,,,568.9788876,,,,,,,,,,,,,,,,,,,,,,,,,,,,,,,,,,,,,,,,,,,,,,,,,,,,,,,,,,,,,,,,,,,,,,,,,,,,,,,,,,,,568.9656302000001,568.9788876,569.4787269000001,569.4629849999999,569.4630339,569.4787269000001,569.6883648,569.6630404,569.6630878999999,569.6883648,569.6883648,569.6883648,570.1950136999999,570.1950136999999,571.3968296,['z'],[1.7014882999999372],[None],,,,,,,,,,,,,,,,,,,,,,,,,,,,,320307,001,2024-07-30_13h16.21.027,final,2024.1.5,None,2024-07-30 13h16.25.135378 +0530,
images/4n.tiff,images/4n.tiff,,,,,,,,,,,,,,,0,5,5,8,,,,,571.4114087999999,,,,,,,,,,,,,,,,,,,,,,,,,,,,,,,,,,,,,,,,,,,,,,,,,,,,,,,,,,,,,,,,,,,,,,,,,,,,,,,,,,,,571.3983450999999,571.4114087999999,571.9113087999999,571.8954971000001,571.8955432999999,571.9113087999999,572.1180586,572.0954331999999,572.0954792,572.1180586,572.1180586,572.1180586,572.6277471000001,572.6277471000001,573.6627556000001,['z'],[1.5352596000000176],[None],,,,,,,,,,,,,,,,,,,,,,,,,,,,,320307,001,2024-07-30_13h16.21.027,final,2024.1.5,None,2024-07-30 13h16.25.135378 +0530,
images/10n.tiff,images/10n.tiff,,,,,,,,,,,,,,,0,6,6,6,,,,,573.6773350000001,,,,,,,,,,,,,,,,,,,,,,,,,,,,,,,,,,,,,,,,,,,,,,,,,,,,,,,,,,,,,,,,,,,,,,,,,,,,,,,,,,,,573.6643313,573.6773350000001,574.177207,574.1614755,574.1615328999999,574.177207,574.3829662999999,574.3615149,574.3615594999999,574.3829662999999,574.3829662999999,574.3829662999999,574.8934881,574.8934881,575.8617174000001,['z'],[1.4703386999999566],[None],,,,,,,,,,,,,,,,,,,,,,,,,,,,,320307,001,2024-07-30_13h16.21.027,final,2024.1.5,None,2024-07-30 13h16.25.135378 +0530,
images/18n.tiff,images/18n.tiff,,,,,,,,,,,,,,,0,7,7,9,,,,,575.8766069000001,,,,,,,,,,,,,,,,,,,,,,,,,,,,,,,,,,,,,,,,,,,,,,,,,,,,,,,,,,,,,,,,,,,,,,,,,,,,,,,,,,,,575.8633096000001,575.8766069000001,576.3764725000001,576.3607187,576.3607606999999,576.3764725000001,576.5827563,576.5607478,576.560796,576.5827563,576.5827563,576.5827563,577.0928667999999,577.0928667999999,578.8443029,['z'],[2.2552883000000747],[None],,,,,,,,,,,,,,,,,,,,,,,,,,,,,320307,001,2024-07-30_13h16.21.027,final,2024.1.5,None,2024-07-30 13h16.25.135378 +0530,
images/10n.tiff,images/5n.tiff,,,,,,,,,,,,,,,0,8,8,7,,,,,578.8589379,,,,,,,,,,,,,,,,,,,,,,,,,,,,,,,,,,,,,,,,,,,,,,,,,,,,,,,,,,,,,,,,,,,,,,,,,,,,,,,,,,,,578.8460663999999,578.8589379,579.3588334000001,579.3430338000001,579.3430801,579.3588334000001,579.5662034,579.5431905,579.543238,579.5662034,579.5662034,579.5662034,580.0753178,580.0753178,582.4262100999999,['m'],[2.8479039999999713],[None],,,,,,,,,,,,,,,,,,,,,,,,,,,,,320307,001,2024-07-30_13h16.21.027,final,2024.1.5,None,2024-07-30 13h16.25.135378 +0530,
images/18n.tiff,images/4n.tiff,,,,,,,,,,,,,,,0,9,9,5,,,,,582.4410126,,,,,,,,,,,,,,,,,,,,,,,,,,,,,,,,,,,,,,,,,,,,,,,,,,,,,,,,,,,,,,,,,,,,,,,,,,,,,,,,,,,,582.4278753000001,582.4410126,582.9408841,582.9252433000001,582.9252885999999,582.9408841,583.1470926,583.1251627000001,583.1252073,583.1470926,583.1470926,583.1470926,583.6574602000001,583.6574602000001,585.0920645000001,['z'],[1.9319072999999207],[None],,,,,,,,,,,,,,,,,,,,,,,,,,,,,320307,001,2024-07-30_13h16.21.027,final,2024.1.5,None,2024-07-30 13h16.25.135378 +0530,
images/5n.tiff,images/5n.tiff,,,,,,,,,,,,,,,0,10,10,2,,,,,585.1069465,,,,,,,,,,,,,,,,,,,,,,,,,,,,,,,,,,,,,,,,,,,,,,,,,,,,,,,,,,,,,,,,,,,,,,,,,,,,,,,,,,,,585.0936221,585.1069465,585.6068086,585.5909477,585.5909979,585.6068086,585.8140883000001,585.7909408,585.7909924,585.8140883000001,585.8140883000001,585.8140883000001,586.3230579000001,586.3230579000001,587.9245077,['z'],[2.09595719999993],[None],,,,,,,,,,,,,,,,,,,,,,,,,,,,,320307,001,2024-07-30_13h16.21.027,final,2024.1.5,None,2024-07-30 13h16.25.135378 +0530,
images/4n.tiff,images/18n.tiff,,,,,,,,,,,,,,,0,11,11,1,,,,,587.9392368000001,,,,,,,,,,,,,,,,,,,,,,,,,,,,,,,,,,,,,,,,,,,,,,,,,,,,,,,,,,,,,,,,,,,,,,,,,,,,,,,,,,,,587.9260357,587.9392368000001,588.4390882,588.4234473000001,588.4234912,588.4390882,588.6396921,588.6225168000001,588.6225312000001,588.6396921,588.6396921,588.6396921,589.1388632000001,589.1388632000001,590.1403215,['m'],[1.4859822999999324],[None],,,,,,,,,,,,,,,,,,,,,,,,,,,,,320307,001,2024-07-30_13h16.21.027,final,2024.1.5,None,2024-07-30 13h16.25.135378 +0530,
images/10n.tiff,images/10n.tiff,,,,,,,,,,,,,,,1,0,12,6,,,,,590.1552124,,,,,,,,,,,,,,,,,,,,,,,,,,,,,,,,,,,,,,,,,,,,,,,,,,,,,,,,,,,,,,,,,,,,,,,,,,,,,,,,,,,,590.1418385,590.1552124,590.6551173,590.6392954,590.6393387,590.6551173,590.8613087000001,590.839234,590.8392781,590.8613087000001,590.8613087000001,590.8613087000001,591.3715568,591.3715568,592.3394624,['z'],[1.4645313000000897],[None],,,,,,,,,,,,,,,,,,,,,,,,,,,,,320307,001,2024-07-30_13h16.21.027,final,2024.1.5,None,2024-07-30 13h16.25.135378 +0530,
images/18n.tiff,images/18n.tiff,,,,,,,,,,,,,,,1,1,13,4,,,,,592.3544626,,,,,,,,,,,,,,,,,,,,,,,,,,,,,,,,,,,,,,,,,,,,,,,,,,,,,,,,,,,,,,,,,,,,,,,,,,,,,,,,,,,,592.3410589,592.3544626,592.8544262,592.8386319000001,592.8386776,592.8544262,593.0604466,593.0386100000001,593.0386617000001,593.0604466,593.0604466,593.0604466,593.5708409000001,593.5708409000001,594.8041849000001,['z'],[1.7295483000000331],[None],,,,,,,,,,,,,,,,,,,,,,,,,,,,,320307,001,2024-07-30_13h16.21.027,final,2024.1.5,None,2024-07-30 13h16.25.135378 +0530,
images/4n.tiff,images/18n.tiff,,,,,,,,,,,,,,,1,2,14,1,,,,,594.8201339,,,,,,,,,,,,,,,,,,,,,,,,,,,,,,,,,,,,,,,,,,,,,,,,,,,,,,,,,,,,,,,,,,,,,,,,,,,,,,,,,,,,594.8046417,594.8201339,595.3200550000001,595.3036257000001,595.3036399,595.3200550000001,595.5209204,595.5036792999999,595.5036931,595.5209204,595.5209204,595.5209204,596.0197166,596.0197166,597.1364596000001,['m'],[1.6046288000000004],[None],,,,,,,,,,,,,,,,,,,,,,,,,,,,,320307,001,2024-07-30_13h16.21.027,final,2024.1.5,None,2024-07-30 13h16.25.135378 +0530,
images/18n.tiff,images/4n.tiff,,,,,,,,,,,,,,,1,3,15,5,,,,,597.1526837000001,,,,,,,,,,,,,,,,,,,,,,,,,,,,,,,,,,,,,,,,,,,,,,,,,,,,,,,,,,,,,,,,,,,,,,,,,,,,,,,,,,,,597.1369318,597.1526837000001,597.6526034000001,597.6360804999999,597.6360943,597.6526034000001,597.8540424,597.836006,597.8360192,597.8540424,597.8540424,597.8540424,598.3690467000001,598.3690467000001,601.3867606000001,['m'],[3.5198841999999786],[None],,,,,,,,,,,,,,,,,,,,,,,,,,,,,320307,001,2024-07-30_13h16.21.027,final,2024.1.5,None,2024-07-30 13h16.25.135378 +0530,
images/5n.tiff,images/10n.tiff,,,,,,,,,,,,,,,1,4,16,3,,,,,601.4014795,,,,,,,,,,,,,,,,,,,,,,,,,,,,,,,,,,,,,,,,,,,,,,,,,,,,,,,,,,,,,,,,,,,,,,,,,,,,,,,,,,,,601.3883034,601.4014795,601.9014285000001,601.8857208,601.885767,601.9014285000001,602.1080394,602.0855835,602.08563,602.1080394,602.1080394,602.1080394,602.6178694,602.6178694,603.4026880000001,['m'],[1.281251599999905],[None],,,,,,,,,,,,,,,,,,,,,,,,,,,,,320307,001,2024-07-30_13h16.21.027,final,2024.1.5,None,2024-07-30 13h16.25.135378 +0530,
images/10n.tiff,images/5n.tiff,,,,,,,,,,,,,,,1,5,17,7,,,,,603.4175645,,,,,,,,,,,,,,,,,,,,,,,,,,,,,,,,,,,,,,,,,,,,,,,,,,,,,,,,,,,,,,,,,,,,,,,,,,,,,,,,,,,,603.4041272,603.4175645,603.9174272,603.9018049000001,603.9018565000001,603.9174272,604.1232302999999,604.1016283000001,604.1016759000001,604.1232302999999,604.1232302999999,604.1232302999999,604.6337897999999,604.6337897999999,605.7189271,['m'],[1.5782838999998603],[None],,,,,,,,,,,,,,,,,,,,,,,,,,,,,320307,001,2024-07-30_13h16.21.027,final,2024.1.5,None,2024-07-30 13h16.25.135378 +0530,
images/18n.tiff,images/18n.tiff,,,,,,,,,,,,,,,1,6,18,9,,,,,605.7334238000001,,,,,,,,,,,,,,,,,,,,,,,,,,,,,,,,,,,,,,,,,,,,,,,,,,,,,,,,,,,,,,,,,,,,,,,,,,,,,,,,,,,,605.7204530000001,605.7334238000001,606.2332639000001,606.2176407,606.2176889,606.2332639000001,606.4391509,606.4175877,606.4176360000001,606.4391509,606.4391509,606.4391509,606.9497664,606.9497664,607.8182722000001,['z'],[1.374647399999958],[None],,,,,,,,,,,,,,,,,,,,,,,,,,,,,320307,001,2024-07-30_13h16.21.027,final,2024.1.5,None,2024-07-30 13h16.25.135378 +0530,
images/4n.tiff,images/4n.tiff,,,,,,,,,,,,,,,1,7,19,0,,,,,607.8326989,,,,,,,,,,,,,,,,,,,,,,,,,,,,,,,,,,,,,,,,,,,,,,,,,,,,,,,,,,,,,,,,,,,,,,,,,,,,,,,,,,,,607.8198938,607.8326989,608.3325609999999,608.3169886000001,608.3170373,608.3325609999999,608.538215,608.5168888000001,608.5169385000002,608.538215,608.538215,608.538215,609.0490969,609.0490969,610.1005058000001,['z'],[1.5551560999999765],[None],,,,,,,,,,,,,,,,,,,,,,,,,,,,,320307,001,2024-07-30_13h16.21.027,final,2024.1.5,None,2024-07-30 13h16.25.135378 +0530,
images/5n.tiff,images/5n.tiff,,,,,,,,,,,,,,,1,8,20,10,,,,,610.1153684000001,,,,,,,,,,,,,,,,,,,,,,,,,,,,,,,,,,,,,,,,,,,,,,,,,,,,,,,,,,,,,,,,,,,,,,,,,,,,,,,,,,,,610.1021066000001,610.1153684000001,610.6152193,610.5995141999999,610.5995587,610.6152193,610.8207405,610.7994591000001,610.7995061000001,610.8207405,610.8207405,610.8207405,611.3316488,611.3316488,612.6830497999999,['z'],[1.8567795999999817],[None],,,,,,,,,,,,,,,,,,,,,,,,,,,,,320307,001,2024-07-30_13h16.21.027,final,2024.1.5,None,2024-07-30 13h16.25.135378 +0530,
images/10n.tiff,images/10n.tiff,,,,,,,,,,,,,,,1,9,21,11,,,,,612.6978349000001,,,,,,,,,,,,,,,,,,,,,,,,,,,,,,,,,,,,,,,,,,,,,,,,,,,,,,,,,,,,,,,,,,,,,,,,,,,,,,,,,,,,612.6845174,612.6978349000001,613.1976767000001,613.1819250000001,613.1819665,613.1976767000001,613.4032058,613.3818473000001,613.3818971000001,613.4032058,613.4032058,613.4032058,613.9141622,613.9141622,614.7493313,['z'],[1.3383510000001024],[None],,,,,,,,,,,,,,,,,,,,,,,,,,,,,320307,001,2024-07-30_13h16.21.027,final,2024.1.5,None,2024-07-30 13h16.25.135378 +0530,
images/4n.tiff,images/4n.tiff,,,,,,,,,,,,,,,1,10,22,8,,,,,614.7637741000001,,,,,,,,,,,,,,,,,,,,,,,,,,,,,,,,,,,,,,,,,,,,,,,,,,,,,,,,,,,,,,,,,,,,,,,,,,,,,,,,,,,,614.7510436,614.7637741000001,615.2636853000001,615.2480222000002,615.2480694000001,615.2636853000001,615.4687144,615.4479402,615.4479894000001,615.4687144,615.4687144,615.4687144,615.9800409,615.9800409,617.3148595,['z'],[1.8410630999999285],[None],,,,,,,,,,,,,,,,,,,,,,,,,,,,,320307,001,2024-07-30_13h16.21.027,final,2024.1.5,None,2024-07-30 13h16.25.135378 +0530,
images/5n.tiff,images/5n.tiff,,,,,,,,,,,,,,,1,11,23,2,,,,,617.3295622,,,,,,,,,,,,,,,,,,,,,,,,,,,,,,,,,,,,,,,,,,,,,,,,,,,,,,,,,,,,,,,,,,,,,,,,,,,,,,,,,,,,617.3165193,617.3295622,617.8294393000001,617.813846,617.8138938,617.8294393000001,618.0356793000001,618.0139041,618.0139534,618.0356793000001,618.0356793000001,618.0356793000001,618.5460009000001,618.5460009000001,619.4305217000001,['z'],[1.3777067999999417],[None],,,,,,,,,,,,,,,,,,,,,,,,,,,,,320307,001,2024-07-30_13h16.21.027,final,2024.1.5,None,2024-07-30 13h16.25.135378 +0530,
images/18n.tiff,images/4n.tiff,,,,,,,,,,,,,,,2,0,24,5,,,,,619.4457136999999,,,,,,,,,,,,,,,,,,,,,,,,,,,,,,,,,,,,,,,,,,,,,,,,,,,,,,,,,,,,,,,,,,,,,,,,,,,,,,,,,,,,619.4318704,619.4457136999999,619.9455252,619.9298084,619.9298629,619.9455252,620.1527083000001,620.1297134000001,620.1297622,620.1527083000001,620.1527083000001,620.1527083000001,620.6619522000001,620.6619522000001,621.7635130000001,['m'],[1.5972271000000546],[None],,,,,,,,,,,,,,,,,,,,,,,,,,,,,320307,001,2024-07-30_13h16.21.027,final,2024.1.5,None,2024-07-30 13h16.25.135378 +0530,
images/5n.tiff,images/5n.tiff,,,,,,,,,,,,,,,2,1,25,2,,,,,621.7781997,,,,,,,,,,,,,,,,,,,,,,,,,,,,,,,,,,,,,,,,,,,,,,,,,,,,,,,,,,,,,,,,,,,,,,,,,,,,,,,,,,,,621.7648641000001,621.7781997,622.277957,622.2624449,622.2624961000001,622.277957,622.4836984000001,622.4622921,622.4623405,622.4836984000001,622.4836984000001,622.4836984000001,622.9945230000001,622.9945230000001,623.7630296,['z'],[1.2668670000000475],[None],,,,,,,,,,,,,,,,,,,,,,,,,,,,,320307,001,2024-07-30_13h16.21.027,final,2024.1.5,None,2024-07-30 13h16.25.135378 +0530,
