face_images_1,face_images_2,pos_1,pos_2,trials_30.thisRepN,trials_30.thisTrialN,trials_30.thisN,trials_30.thisIndex,main_1.thisRepN,main_1.thisTrialN,main_1.thisN,main_1.thisIndex,main_2.thisRepN,main_2.thisTrialN,main_2.thisN,main_2.thisIndex,main_3.thisRepN,main_3.thisTrialN,main_3.thisN,main_3.thisIndex,main_4.thisRepN,main_4.thisTrialN,main_4.thisN,main_4.thisIndex,thisRow.t,notes,Instruction.started,text_Welcome.started,key_space.started,Instruction.stopped,key_space.keys,key_space.rt,key_space.duration,gap.started,text_gap.started,gap.stopped,plus.started,plus__.started,plus.stopped,trial_30.started,image_1.started,image_2.started,trial_resp.started,image_1.stopped,image_2.stopped,trial_30.stopped,trial_resp.keys,trial_resp.rt,trial_resp.duration,Instruction_1.started,text_instruct.started,space_resp.started,Instruction_1.stopped,space_resp.keys,space_resp.rt,space_resp.duration,gap_1.started,gap__1.started,gap_1.stopped,plus_1.started,plus__1.started,plus_1.stopped,Block_1.started,image_1_set_1.started,image_2_set_1.started,resp_1.started,image_1_set_1.stopped,image_2_set_1.stopped,Block_1.stopped,resp_1.keys,resp_1.rt,resp_1.duration,Instuct_2.started,text_block2.started,space_resp_2.started,Instuct_2.stopped,space_resp_2.keys,space_resp_2.rt,space_resp_2.duration,gap_2.started,gap__2.started,gap_2.stopped,plus_2.started,plus__2.started,plus_2.stopped,Block_2.started,image_1_set_2.started,image_2_set_2.started,resp_2.started,image_1_set_2.stopped,image_2_set_2.stopped,Block_2.stopped,resp_2.keys,resp_2.rt,resp_2.duration,Instruct_3.started,text_block3.started,space_resp_3.started,Instruct_3.stopped,space_resp_3.keys,space_resp_3.rt,space_resp_3.duration,gap_3.started,gap__3.started,gap_3.stopped,plus_3.started,plus__3.started,plus_3.stopped,Block_3.started,image_1_set_3.started,image_2_set_3.started,resp_3.started,image_1_set_3.stopped,image_2_set_3.stopped,Block_3.stopped,resp_3.keys,resp_3.rt,resp_3.duration,Instruct_4.started,text_block4.started,space_resp_4.started,Instruct_4.stopped,space_resp_4.keys,space_resp_4.rt,space_resp_4.duration,gap_4.started,gap__4.started,gap_4.stopped,plus_4.started,plus___4.started,plus_4.stopped,Block_4.started,image_1_set_4.started,image_2_set_4.started,resp_4.started,image_1_set_4.stopped,image_2_set_4.stopped,Block_4.stopped,resp_4.keys,resp_4.rt,resp_4.duration,end.started,text_3.started,text_3.stopped,end.stopped,participant,session,date,expName,psychopyVersion,frameRate,expStart,
,,,,,,,,,,,,,,,,,,,,,,,,,,0.005054399953223765,0.007354400004260242,0.007354400004260242,27.604817899991758,['space'],[27.581664900062606],[None],,,,,,,,,,,,,,,,,,,,,,,,,,,,,,,,,,,,,,,,,,,,,,,,,,,,,,,,,,,,,,,,,,,,,,,,,,,,,,,,,,,,,,,,,,,,,,,,,,,,,,,,,,,,,,,,,129950,001,2024-07-30_18h51.27.814,final,2024.1.5,None,2024-07-30 18h51.31.293271 +0530,
images/18n.tiff,images/5n.tiff,"(0.3, 0.2)","(-0.3, 0.2)",0,0,0,13,,,,,,,,,,,,,,,,,27.613092899904586,,,,,,,,,27.611350699909963,27.613092899904586,28.106462799943984,28.106491999933496,28.119735299958847,28.306376299937256,28.306405099923722,28.3440094999969,28.3440094999969,28.3440094999969,28.839510699966922,28.839510699966922,29.42719989991747,['m'],[1.0693221000256017],[None],,,,,,,,,,,,,,,,,,,,,,,,,,,,,,,,,,,,,,,,,,,,,,,,,,,,,,,,,,,,,,,,,,,,,,,,,,,,,,,,,,,,,,,,,,,,,,,,,129950,001,2024-07-30_18h51.27.814,final,2024.1.5,None,2024-07-30 18h51.31.293271 +0530,
images/10n.tiff,images/10n.tiff,"(0.3, 0.2)","(-0.3, 0.2)",0,1,1,11,,,,,,,,,,,,,,,,,29.439345799968578,,,,,,,,,29.428676299983636,29.439345799968578,29.932457399903797,29.932487899903208,29.94570279994514,30.132396599976346,30.13244359998498,30.16083119995892,30.16083119995892,30.16083119995892,30.66555699997116,30.66555699997116,31.493201199918985,['z'],[1.324302799999714],[None],,,,,,,,,,,,,,,,,,,,,,,,,,,,,,,,,,,,,,,,,,,,,,,,,,,,,,,,,,,,,,,,,,,,,,,,,,,,,,,,,,,,,,,,,,,,,,,,,129950,001,2024-07-30_18h51.27.814,final,2024.1.5,None,2024-07-30 18h51.31.293271 +0530,
images/10n.tiff,images/18n.tiff,"(0.3, 0.2)","(-0.3, 0.2)",0,2,2,10,,,,,,,,,,,,,,,,,31.505223299958743,,,,,,,,,31.494116499903612,31.505223299958743,31.998614899930544,31.998645499930717,32.011650200001895,32.1981788999401,32.198191099916585,32.214488399913535,32.214488399913535,32.214488399913535,32.71828429994639,32.71828429994639,33.82557290000841,['m'],[1.599012800026685],[None],,,,,,,,,,,,,,,,,,,,,,,,,,,,,,,,,,,,,,,,,,,,,,,,,,,,,,,,,,,,,,,,,,,,,,,,,,,,,,,,,,,,,,,,,,,,,,,,,129950,001,2024-07-30_18h51.27.814,final,2024.1.5,None,2024-07-30 18h51.31.293271 +0530,
images/10n.tiff,images/10n.tiff,"(0.3, 0.2)","(-0.3, 0.2)",0,3,3,24,,,,,,,,,,,,,,,,,33.83776369993575,,,,,,,,,33.82628549996298,33.83776369993575,34.33097469992936,34.33100599993486,34.34433419990819,34.530993399908766,34.531024399911985,34.551078099990264,34.551078099990264,34.551078099990264,35.05064189992845,35.05064189992845,35.5455748999957,['z'],[0.9899482000619173],[None],,,,,,,,,,,,,,,,,,,,,,,,,,,,,,,,,,,,,,,,,,,,,,,,,,,,,,,,,,,,,,,,,,,,,,,,,,,,,,,,,,,,,,,,,,,,,,,,,129950,001,2024-07-30_18h51.27.814,final,2024.1.5,None,2024-07-30 18h51.31.293271 +0530,
images/4n.tiff,images/4n.tiff,"(0.3, 0.2)","(-0.3, 0.2)",0,4,4,19,,,,,,,,,,,,,,,,,35.55717329995241,,,,,,,,,35.5464115999639,35.55717329995241,36.05042689992115,36.05045609991066,36.063698099926114,36.25043449993245,36.25046339991968,36.268751699943095,36.268751699943095,36.268751699943095,36.7700923999073,36.7700923999073,37.023792299907655,['z'],[0.7441864999709651],[None],,,,,,,,,,,,,,,,,,,,,,,,,,,,,,,,,,,,,,,,,,,,,,,,,,,,,,,,,,,,,,,,,,,,,,,,,,,,,,,,,,,,,,,,,,,,,,,,,129950,001,2024-07-30_18h51.27.814,final,2024.1.5,None,2024-07-30 18h51.31.293271 +0530,
images/10n.tiff,images/5n.tiff,"(0.3, 0.2)","(-0.3, 0.2)",0,5,5,27,,,,,,,,,,,,,,,,,37.036573999910615,,,,,,,,,37.02413379994687,37.036573999910615,37.53022059996147,37.53025379998144,37.5434191999957,37.72996089991648,37.72999299992807,37.75468509993516,37.75468509993516,37.75468509993516,38.263083999976516,38.263083999976516,38.86428259999957,['m'],[1.0988049000734463],[None],,,,,,,,,,,,,,,,,,,,,,,,,,,,,,,,,,,,,,,,,,,,,,,,,,,,,,,,,,,,,,,,,,,,,,,,,,,,,,,,,,,,,,,,,,,,,,,,,129950,001,2024-07-30_18h51.27.814,final,2024.1.5,None,2024-07-30 18h51.31.293271 +0530,
images/18n.tiff,images/18n.tiff,"(0.3, 0.2)","(-0.3, 0.2)",0,6,6,25,,,,,,,,,,,,,,,,,38.87621479993686,,,,,,,,,38.86530199996196,38.87621479993686,39.36936629994307,39.369393699918874,39.38261979992967,39.56918839993887,39.569217399926856,39.58946549997199,39.58946549997199,39.58946549997199,40.089005399961025,40.089005399961025,40.382862699916586,['z'],[0.7841536999912933],[None],,,,,,,,,,,,,,,,,,,,,,,,,,,,,,,,,,,,,,,,,,,,,,,,,,,,,,,,,,,,,,,,,,,,,,,,,,,,,,,,,,,,,,,,,,,,,,,,,129950,001,2024-07-30_18h51.27.814,final,2024.1.5,None,2024-07-30 18h51.31.293271 +0530,
images/18n.tiff,images/18n.tiff,"(0.3, 0.2)","(-0.3, 0.2)",0,7,7,15,,,,,,,,,,,,,,,,,40.395530299982056,,,,,,,,,40.3831609999761,40.395530299982056,40.88890519994311,40.888935999944806,40.902227899990976,41.08874619996641,41.08877469995059,41.10775109997485,41.10775109997485,41.10775109997485,41.60843379993457,41.60843379993457,41.849642899935134,['z'],[0.7377785999560729],[None],,,,,,,,,,,,,,,,,,,,,,,,,,,,,,,,,,,,,,,,,,,,,,,,,,,,,,,,,,,,,,,,,,,,,,,,,,,,,,,,,,,,,,,,,,,,,,,,,129950,001,2024-07-30_18h51.27.814,final,2024.1.5,None,2024-07-30 18h51.31.293271 +0530,
images/5n.tiff,images/4n.tiff,"(0.3, 0.2)","(-0.3, 0.2)",0,8,8,4,,,,,,,,,,,,,,,,,41.86185389989987,,,,,,,,,41.85029939992819,41.86185389989987,42.35498840000946,42.35500699991826,42.36812599992845,42.55521779996343,42.555248599965125,42.57429159991443,42.57429159991443,42.57429159991443,43.07478349993471,43.07478349993471,43.3557271999307,['m'],[0.7748191000428051],[None],,,,,,,,,,,,,,,,,,,,,,,,,,,,,,,,,,,,,,,,,,,,,,,,,,,,,,,,,,,,,,,,,,,,,,,,,,,,,,,,,,,,,,,,,,,,,,,,,129950,001,2024-07-30_18h51.27.814,final,2024.1.5,None,2024-07-30 18h51.31.293271 +0530,
images/18n.tiff,images/4n.tiff,"(0.3, 0.2)","(-0.3, 0.2)",0,9,9,29,,,,,,,,,,,,,,,,,43.36773890000768,,,,,,,,,43.35623839998152,43.36773890000768,43.86127599992324,43.86130949994549,43.874465800006874,44.061271899961866,44.06130099995062,44.07982669991907,44.07982669991907,44.07982669991907,44.580807799939066,44.580807799939066,45.195503299939446,['m'],[1.109791100025177],[None],,,,,,,,,,,,,,,,,,,,,,,,,,,,,,,,,,,,,,,,,,,,,,,,,,,,,,,,,,,,,,,,,,,,,,,,,,,,,,,,,,,,,,,,,,,,,,,,,129950,001,2024-07-30_18h51.27.814,final,2024.1.5,None,2024-07-30 18h51.31.293271 +0530,
images/4n.tiff,images/18n.tiff,"(0.3, 0.2)","(-0.3, 0.2)",0,10,10,2,,,,,,,,,,,,,,,,,45.207090899930336,,,,,,,,,45.19632529991213,45.207090899930336,45.700795399956405,45.700827499968,45.713930399972014,45.900939099956304,45.900969899958,45.923316299915314,45.923316299915314,45.923316299915314,46.42048619990237,46.42048619990237,46.860879299929366,['m'],[0.9297694000415504],[None],,,,,,,,,,,,,,,,,,,,,,,,,,,,,,,,,,,,,,,,,,,,,,,,,,,,,,,,,,,,,,,,,,,,,,,,,,,,,,,,,,,,,,,,,,,,,,,,,129950,001,2024-07-30_18h51.27.814,final,2024.1.5,None,2024-07-30 18h51.31.293271 +0530,
images/10n.tiff,images/4n.tiff,"(0.3, 0.2)","(-0.3, 0.2)",0,11,11,8,,,,,,,,,,,,,,,,,46.87337049993221,,,,,,,,,46.86128730000928,46.87337049993221,47.36661779996939,47.36663659999613,47.38010229996871,47.56676159997005,47.56679279997479,47.5902863999363,47.5902863999363,47.5902863999363,48.08626279991586,48.08626279991586,48.48683750000782,['m'],[0.8875895000528544],[None],,,,,,,,,,,,,,,,,,,,,,,,,,,,,,,,,,,,,,,,,,,,,,,,,,,,,,,,,,,,,,,,,,,,,,,,,,,,,,,,,,,,,,,,,,,,,,,,,129950,001,2024-07-30_18h51.27.814,final,2024.1.5,None,2024-07-30 18h51.31.293271 +0530,
images/5n.tiff,images/18n.tiff,"(0.3, 0.2)","(-0.3, 0.2)",0,12,12,6,,,,,,,,,,,,,,,,,48.49963639990892,,,,,,,,,48.48722579993773,48.49963639990892,48.99306419992354,48.99309619993437,49.005994999897666,49.192897100001574,49.192925499984995,49.21122179995291,49.21122179995291,49.21122179995291,49.71253539994359,49.71253539994359,50.00661759998184,['m'],[0.7861450000200421],[None],,,,,,,,,,,,,,,,,,,,,,,,,,,,,,,,,,,,,,,,,,,,,,,,,,,,,,,,,,,,,,,,,,,,,,,,,,,,,,,,,,,,,,,,,,,,,,,,,129950,001,2024-07-30_18h51.27.814,final,2024.1.5,None,2024-07-30 18h51.31.293271 +0530,
images/4n.tiff,images/5n.tiff,"(0.3, 0.2)","(-0.3, 0.2)",0,13,13,0,,,,,,,,,,,,,,,,,50.01928459992632,,,,,,,,,50.007296299911104,50.01928459992632,50.51258370000869,50.512613099999726,50.52554569998756,50.71239100000821,50.71241929999087,50.72976469993591,50.72976469993591,50.72976469993591,51.23225449991878,51.23225449991878,51.51263259991538,['m'],[0.7717269000131637],[None],,,,,,,,,,,,,,,,,,,,,,,,,,,,,,,,,,,,,,,,,,,,,,,,,,,,,,,,,,,,,,,,,,,,,,,,,,,,,,,,,,,,,,,,,,,,,,,,,129950,001,2024-07-30_18h51.27.814,final,2024.1.5,None,2024-07-30 18h51.31.293271 +0530,
images/18n.tiff,images/4n.tiff,"(0.3, 0.2)","(-0.3, 0.2)",0,14,14,12,,,,,,,,,,,,,,,,,51.52513209998142,,,,,,,,,51.512959499959834,51.52513209998142,52.018751599942334,52.01878719998058,52.031881999922916,52.218611199990846,52.21863499993924,52.23636350000743,52.23636350000743,52.23636350000743,52.73828119994141,52.73828119994141,52.92725889990106,['m'],[0.6886889999732375],[None],,,,,,,,,,,,,,,,,,,,,,,,,,,,,,,,,,,,,,,,,,,,,,,,,,,,,,,,,,,,,,,,,,,,,,,,,,,,,,,,,,,,,,,,,,,,,,,,,129950,001,2024-07-30_18h51.27.814,final,2024.1.5,None,2024-07-30 18h51.31.293271 +0530,
images/5n.tiff,images/5n.tiff,"(0.3, 0.2)","(-0.3, 0.2)",0,15,15,22,,,,,,,,,,,,,,,,,52.93840509990696,,,,,,,,,52.92811919993255,52.93840509990696,53.43123069999274,53.43123999994714,53.44437289994676,53.63154069997836,53.63157379999757,53.650672899908386,53.650672899908386,53.650672899908386,54.15116709994618,54.15116709994618,54.498756199958734,['z'],[0.8422486999770626],[None],,,,,,,,,,,,,,,,,,,,,,,,,,,,,,,,,,,,,,,,,,,,,,,,,,,,,,,,,,,,,,,,,,,,,,,,,,,,,,,,,,,,,,,,,,,,,,,,,129950,001,2024-07-30_18h51.27.814,final,2024.1.5,None,2024-07-30 18h51.31.293271 +0530,
images/4n.tiff,images/4n.tiff,"(0.3, 0.2)","(-0.3, 0.2)",0,16,16,3,,,,,,,,,,,,,,,,,54.51103049993981,,,,,,,,,54.499540199991316,54.51103049993981,55.00440809992142,55.00444129994139,55.01747459999751,55.20417569996789,55.20420789998025,55.2253417999018,55.2253417999018,55.2253417999018,55.72379199997522,55.72379199997522,56.05868539994117,['z'],[0.8287028000922874],[None],,,,,,,,,,,,,,,,,,,,,,,,,,,,,,,,,,,,,,,,,,,,,,,,,,,,,,,,,,,,,,,,,,,,,,,,,,,,,,,,,,,,,,,,,,,,,,,,,129950,001,2024-07-30_18h51.27.814,final,2024.1.5,None,2024-07-30 18h51.31.293271 +0530,
images/5n.tiff,images/10n.tiff,"(0.3, 0.2)","(-0.3, 0.2)",0,17,17,5,,,,,,,,,,,,,,,,,56.0704059000127,,,,,,,,,56.05950999993365,56.0704059000127,56.563602500013076,56.56363699992653,56.57688790000975,56.76377209997736,56.763802999979816,56.7909855999751,56.7909855999751,56.7909855999751,57.296677400008775,57.296677400008775,57.59048419992905,['m'],[0.7906098999083042],[None],,,,,,,,,,,,,,,,,,,,,,,,,,,,,,,,,,,,,,,,,,,,,,,,,,,,,,,,,,,,,,,,,,,,,,,,,,,,,,,,,,,,,,,,,,,,,,,,,129950,001,2024-07-30_18h51.27.814,final,2024.1.5,None,2024-07-30 18h51.31.293271 +0530,
images/10n.tiff,images/5n.tiff,"(0.3, 0.2)","(-0.3, 0.2)",0,18,18,9,,,,,,,,,,,,,,,,,57.6030692999484,,,,,,,,,57.59093449998181,57.6030692999484,58.096888699918054,58.09694269997999,58.109803700004704,58.29670800000895,58.296741399914026,58.31708039995283,58.31708039995283,58.31708039995283,58.81639119994361,58.81639119994361,59.19007979996968,['m'],[0.863943999982439],[None],,,,,,,,,,,,,,,,,,,,,,,,,,,,,,,,,,,,,,,,,,,,,,,,,,,,,,,,,,,,,,,,,,,,,,,,,,,,,,,,,,,,,,,,,,,,,,,,,129950,001,2024-07-30_18h51.27.814,final,2024.1.5,None,2024-07-30 18h51.31.293271 +0530,
images/5n.tiff,images/18n.tiff,"(0.3, 0.2)","(-0.3, 0.2)",0,19,19,21,,,,,,,,,,,,,,,,,59.20266149996314,,,,,,,,,59.190469799912535,59.20266149996314,59.69619960000273,59.69623169989791,59.709300499991514,59.896160000003874,59.896190400002524,59.914480799925514,59.914480799925514,59.914480799925514,60.4157123999903,60.4157123999903,60.736760600004345,['m'],[0.8106503000017256],[None],,,,,,,,,,,,,,,,,,,,,,,,,,,,,,,,,,,,,,,,,,,,,,,,,,,,,,,,,,,,,,,,,,,,,,,,,,,,,,,,,,,,,,,,,,,,,,,,,129950,001,2024-07-30_18h51.27.814,final,2024.1.5,None,2024-07-30 18h51.31.293271 +0530,
images/18n.tiff,images/10n.tiff,"(0.3, 0.2)","(-0.3, 0.2)",0,20,20,14,,,,,,,,,,,,,,,,,60.74890189990401,,,,,,,,,60.737470499938354,60.74890189990401,61.24208649992943,61.24211819993798,61.255418599932455,61.44214900000952,61.44218389992602,61.461801999947056,61.461801999947056,61.461801999947056,61.96183609997388,61.96183609997388,62.21617749996949,['m'],[0.7432961999438703],[None],,,,,,,,,,,,,,,,,,,,,,,,,,,,,,,,,,,,,,,,,,,,,,,,,,,,,,,,,,,,,,,,,,,,,,,,,,,,,,,,,,,,,,,,,,,,,,,,,129950,001,2024-07-30_18h51.27.814,final,2024.1.5,None,2024-07-30 18h51.31.293271 +0530,
images/10n.tiff,images/18n.tiff,"(0.3, 0.2)","(-0.3, 0.2)",0,21,21,23,,,,,,,,,,,,,,,,,62.228455399977975,,,,,,,,,62.216926499968395,62.228455399977975,62.72172659996431,62.721759099978954,62.73498449998442,62.92160729994066,62.92163489991799,62.939714499982074,62.939714499982074,62.939714499982074,63.44124869990628,63.44124869990628,63.69677239994053,['m'],[0.75320129992906],[None],,,,,,,,,,,,,,,,,,,,,,,,,,,,,,,,,,,,,,,,,,,,,,,,,,,,,,,,,,,,,,,,,,,,,,,,,,,,,,,,,,,,,,,,,,,,,,,,,129950,001,2024-07-30_18h51.27.814,final,2024.1.5,None,2024-07-30 18h51.31.293271 +0530,
images/5n.tiff,images/5n.tiff,"(0.3, 0.2)","(-0.3, 0.2)",0,22,22,7,,,,,,,,,,,,,,,,,63.70808020001277,,,,,,,,,63.69775729998946,63.70808020001277,64.20136179996189,64.20139900001232,64.21452639997005,64.40115309995599,64.40118239994626,64.42037509998772,64.42037509998772,64.42037509998772,64.9207691999618,64.9207691999618,65.21540449990425,['z'],[0.7847634000936523],[None],,,,,,,,,,,,,,,,,,,,,,,,,,,,,,,,,,,,,,,,,,,,,,,,,,,,,,,,,,,,,,,,,,,,,,,,,,,,,,,,,,,,,,,,,,,,,,,,,129950,001,2024-07-30_18h51.27.814,final,2024.1.5,None,2024-07-30 18h51.31.293271 +0530,
images/4n.tiff,images/10n.tiff,"(0.3, 0.2)","(-0.3, 0.2)",0,23,23,17,,,,,,,,,,,,,,,,,65.22741299995687,,,,,,,,,65.21614059992135,65.22741299995687,65.72079459996894,65.72082629997749,65.73407629993744,65.92066979990341,65.92070019990206,65.94012369995471,65.94012369995471,65.94012369995471,66.44028430001345,66.44028430001345,67.0004692999646,['m'],[1.0491737000411376],[None],,,,,,,,,,,,,,,,,,,,,,,,,,,,,,,,,,,,,,,,,,,,,,,,,,,,,,,,,,,,,,,,,,,,,,,,,,,,,,,,,,,,,,,,,,,,,,,,,129950,001,2024-07-30_18h51.27.814,final,2024.1.5,None,2024-07-30 18h51.31.293271 +0530,
images/5n.tiff,images/4n.tiff,"(0.3, 0.2)","(-0.3, 0.2)",0,24,24,26,,,,,,,,,,,,,,,,,67.01344149990473,,,,,,,,,67.00081200001296,67.01344149990473,67.50682639994193,67.50685869995505,67.51989619992673,67.70694959990215,67.70698139991146,67.72785509994719,67.72785509994719,67.72785509994719,68.22649439994711,68.22649439994711,68.44055729999673,['m'],[0.701762399985455],[None],,,,,,,,,,,,,,,,,,,,,,,,,,,,,,,,,,,,,,,,,,,,,,,,,,,,,,,,,,,,,,,,,,,,,,,,,,,,,,,,,,,,,,,,,,,,,,,,,129950,001,2024-07-30_18h51.27.814,final,2024.1.5,None,2024-07-30 18h51.31.293271 +0530,
images/4n.tiff,images/18n.tiff,"(0.3, 0.2)","(-0.3, 0.2)",0,25,25,18,,,,,,,,,,,,,,,,,68.45308090001345,,,,,,,,,68.44107079994865,68.45308090001345,68.94643209991045,68.94646299991291,68.95956009998918,69.1465836999705,69.14661609998439,69.16944169998169,69.16944169998169,69.16944169998169,69.66605809994508,69.66605809994508,69.89340810000431,['m'],[0.7154443999752402],[None],,,,,,,,,,,,,,,,,,,,,,,,,,,,,,,,,,,,,,,,,,,,,,,,,,,,,,,,,,,,,,,,,,,,,,,,,,,,,,,,,,,,,,,,,,,,,,,,,129950,001,2024-07-30_18h51.27.814,final,2024.1.5,None,2024-07-30 18h51.31.293271 +0530,
images/4n.tiff,images/5n.tiff,"(0.3, 0.2)","(-0.3, 0.2)",0,26,26,16,,,,,,,,,,,,,,,,,69.90599969995674,,,,,,,,,69.89380689989775,69.90599969995674,70.39921479998156,70.39924359996803,70.4125910999719,70.59916300000623,70.59919009997975,70.61794039991219,70.61794039991219,70.61794039991219,71.11883880000096,71.11883880000096,71.14580810000189,['m'],[0.5154035000596195],[None],,,,,,,,,,,,,,,,,,,,,,,,,,,,,,,,,,,,,,,,,,,,,,,,,,,,,,,,,,,,,,,,,,,,,,,,,,,,,,,,,,,,,,,,,,,,,,,,,129950,001,2024-07-30_18h51.27.814,final,2024.1.5,None,2024-07-30 18h51.31.293271 +0530,
images/4n.tiff,images/10n.tiff,"(0.3, 0.2)","(-0.3, 0.2)",0,27,27,1,,,,,,,,,,,,,,,,,71.15878699999303,,,,,,,,,71.14613419992384,71.15878699999303,71.65229599992745,71.6523250999162,71.66546389996074,71.85233169991989,71.85236829996575,71.86939040001016,71.86939040001016,71.86939040001016,72.37177869991865,72.37177869991865,72.60061500000302,['m'],[0.7284984000725672],[None],,,,,,,,,,,,,,,,,,,,,,,,,,,,,,,,,,,,,,,,,,,,,,,,,,,,,,,,,,,,,,,,,,,,,,,,,,,,,,,,,,,,,,,,,,,,,,,,,129950,001,2024-07-30_18h51.27.814,final,2024.1.5,None,2024-07-30 18h51.31.293271 +0530,
images/5n.tiff,images/10n.tiff,"(0.3, 0.2)","(-0.3, 0.2)",0,28,28,20,,,,,,,,,,,,,,,,,72.61169119994156,,,,,,,,,72.60154079995118,72.61169119994156,73.10536689998116,73.10539989999961,73.11834929999895,73.30524759995751,73.30528969992884,73.32438100001309,73.32438100001309,73.32438100001309,73.82476769993082,73.82476769993082,74.10614889999852,['m'],[0.7775381000246853],[None],,,,,,,,,,,,,,,,,,,,,,,,,,,,,,,,,,,,,,,,,,,,,,,,,,,,,,,,,,,,,,,,,,,,,,,,,,,,,,,,,,,,,,,,,,,,,,,,,129950,001,2024-07-30_18h51.27.814,final,2024.1.5,None,2024-07-30 18h51.31.293271 +0530,
images/18n.tiff,images/10n.tiff,"(0.3, 0.2)","(-0.3, 0.2)",0,29,29,28,,,,,,,,,,,,,,,,,74.1178299000021,,,,,,,,,74.10701619996689,74.1178299000021,74.61124279990327,74.61127639992628,74.62451439991128,74.81128249992616,74.81131399993319,74.83102969999891,74.83102969999891,74.83102969999891,75.33095319999848,75.33095319999848,75.53190449997783,['m'],[0.6939091000240296],[None],,,,,,,,,,,,,,,,,,,,,,,,,,,,,,,,,,,,,,,,,,,,,,,,,,,,,,,,,,,,,,,,,,,,,,,,,,,,,,,,,,,,,,,,,,,,,,,,,129950,001,2024-07-30_18h51.27.814,final,2024.1.5,None,2024-07-30 18h51.31.293271 +0530,
,,,,,,,,,,,,,,,,,,,,,,,,,,,,,,,,,,,,,,,,,,,,,,,,,75.53229509992525,75.54416859999765,75.54416859999765,82.83683909999672,space,7.284928500070237,None,,,,,,,,,,,,,,,,,,,,,,,,,,,,,,,,,,,,,,,,,,,,,,,,,,,,,,,,,,,,,,,,,,,,,,,,,,,,,,,,,,,,,,,,,,129950,001,2024-07-30_18h51.27.814,final,2024.1.5,None,2024-07-30 18h51.31.293271 +0530,
images/10n.tiff,images/5n.tiff,,,,,,,0,0,0,3,,,,,,,,,,,,,82.85082439996768,,,,,,,,,,,,,,,,,,,,,,,,,,,,,,,,82.84881289990153,82.85082439996768,83.34180289995857,83.34183759998996,83.35496969998349,83.5418041999219,83.54183609993197,83.56507529993542,83.56507529993542,83.56507529993542,84.06133199995384,84.06133199995384,84.36821429990232,['m'],[0.792036599945277],[None],,,,,,,,,,,,,,,,,,,,,,,,,,,,,,,,,,,,,,,,,,,,,,,,,,,,,,,,,,,,,,,,,,,,,,,,,,129950,001,2024-07-30_18h51.27.814,final,2024.1.5,None,2024-07-30 18h51.31.293271 +0530,
images/5n.tiff,images/10n.tiff,,,,,,,0,1,1,1,,,,,,,,,,,,,84.38111009995919,,,,,,,,,,,,,,,,,,,,,,,,,,,,,,,,84.36872749996837,84.38111009995919,84.87449749989901,84.87452799989842,84.88778359990101,85.0744560000021,85.07448800001293,85.09399480000138,85.09399480000138,85.09399480000138,85.59407529991586,85.59407529991586,86.18133279995527,['m'],[1.0793802000116557],[None],,,,,,,,,,,,,,,,,,,,,,,,,,,,,,,,,,,,,,,,,,,,,,,,,,,,,,,,,,,,,,,,,,,,,,,,,,129950,001,2024-07-30_18h51.27.814,final,2024.1.5,None,2024-07-30 18h51.31.293271 +0530,
images/5n.tiff,images/5n.tiff,,,,,,,0,2,2,4,,,,,,,,,,,,,86.19381849991623,,,,,,,,,,,,,,,,,,,,,,,,,,,,,,,,86.18188079993706,86.19381849991623,86.68740749999415,86.6874414999038,86.70044469996355,86.88739729998633,86.8874322999036,86.90604079992045,86.90604079992045,86.90604079992045,87.40700309991371,87.40700309991371,87.55465579999145,['z'],[0.6349084000103176],[None],,,,,,,,,,,,,,,,,,,,,,,,,,,,,,,,,,,,,,,,,,,,,,,,,,,,,,,,,,,,,,,,,,,,,,,,,,129950,001,2024-07-30_18h51.27.814,final,2024.1.5,None,2024-07-30 18h51.31.293271 +0530,
images/5n.tiff,images/5n.tiff,,,,,,,0,3,3,0,,,,,,,,,,,,,87.56691709998995,,,,,,,,,,,,,,,,,,,,,,,,,,,,,,,,87.55587249994278,87.56691709998995,88.0601737999823,88.06020649999846,88.07324289996177,88.26017999998294,88.26020979997702,88.280604199972,88.280604199972,88.280604199972,88.7797053999966,88.7797053999966,88.92686919996049,['z'],[0.6363060000585392],[None],,,,,,,,,,,,,,,,,,,,,,,,,,,,,,,,,,,,,,,,,,,,,,,,,,,,,,,,,,,,,,,,,,,,,,,,,,129950,001,2024-07-30_18h51.27.814,final,2024.1.5,None,2024-07-30 18h51.31.293271 +0530,
images/10n.tiff,images/10n.tiff,,,,,,,0,4,4,2,,,,,,,,,,,,,88.93949699995574,,,,,,,,,,,,,,,,,,,,,,,,,,,,,,,,88.92742189997807,88.93949699995574,89.43303289997857,89.43306670000311,89.44622559996787,89.63292489992455,89.63295619993005,89.65290109999478,89.65290109999478,89.65290109999478,90.15253909991588,90.15253909991588,90.44656869990285,['z'],[0.7849465999752283],[None],,,,,,,,,,,,,,,,,,,,,,,,,,,,,,,,,,,,,,,,,,,,,,,,,,,,,,,,,,,,,,,,,,,,,,,,,,129950,001,2024-07-30_18h51.27.814,final,2024.1.5,None,2024-07-30 18h51.31.293271 +0530,
images/10n.tiff,images/10n.tiff,,,,,,,0,5,5,5,,,,,,,,,,,,,90.45917099993676,,,,,,,,,,,,,,,,,,,,,,,,,,,,,,,,90.44705049996264,90.45917099993676,90.9525355999358,90.95256709994283,90.96588469995186,91.15250269998796,91.15253449999727,91.17453439999372,91.17453439999372,91.17453439999372,91.67208649998065,91.67208649998065,91.94011610001326,['z'],[0.7588365999981761],[None],,,,,,,,,,,,,,,,,,,,,,,,,,,,,,,,,,,,,,,,,,,,,,,,,,,,,,,,,,,,,,,,,,,,,,,,,,129950,001,2024-07-30_18h51.27.814,final,2024.1.5,None,2024-07-30 18h51.31.293271 +0530,
images/10n.tiff,images/10n.tiff,,,,,,,1,0,6,5,,,,,,,,,,,,,91.95210339990444,,,,,,,,,,,,,,,,,,,,,,,,,,,,,,,,91.94126769993454,91.95210339990444,92.44536989997141,92.44539859995712,92.4585078000091,92.64534920000006,92.64538010000251,92.66570309991948,92.66570309991948,92.66570309991948,93.16500389995053,93.16500389995053,93.2600625999039,['z'],[0.5876028999919072],[None],,,,,,,,,,,,,,,,,,,,,,,,,,,,,,,,,,,,,,,,,,,,,,,,,,,,,,,,,,,,,,,,,,,,,,,,,,129950,001,2024-07-30_18h51.27.814,final,2024.1.5,None,2024-07-30 18h51.31.293271 +0530,
images/5n.tiff,images/5n.tiff,,,,,,,1,1,7,4,,,,,,,,,,,,,93.27157719992101,,,,,,,,,,,,,,,,,,,,,,,,,,,,,,,,93.26102709991392,93.27157719992101,93.76501639990602,93.76504989992827,93.77818789996672,93.96503359999042,93.9650687999092,93.98605409997981,93.98605409997981,93.98605409997981,94.48466159997042,94.48466159997042,94.57916459999979,['m'],[0.5869161000009626],[None],,,,,,,,,,,,,,,,,,,,,,,,,,,,,,,,,,,,,,,,,,,,,,,,,,,,,,,,,,,,,,,,,,,,,,,,,,129950,001,2024-07-30_18h51.27.814,final,2024.1.5,None,2024-07-30 18h51.31.293271 +0530,
images/10n.tiff,images/10n.tiff,,,,,,,1,2,8,2,,,,,,,,,,,,,94.5911145999562,,,,,,,,,,,,,,,,,,,,,,,,,,,,,,,,94.58000319998246,94.5911145999562,95.08451769989915,95.08454959990922,95.09771999996156,95.28464979992714,95.28468339995015,95.30602239992004,95.30602239992004,95.30602239992004,95.80415029998403,95.80415029998403,95.97877229994629,['z'],[0.6590558000607416],[None],,,,,,,,,,,,,,,,,,,,,,,,,,,,,,,,,,,,,,,,,,,,,,,,,,,,,,,,,,,,,,,,,,,,,,,,,,129950,001,2024-07-30_18h51.27.814,final,2024.1.5,None,2024-07-30 18h51.31.293271 +0530,
images/5n.tiff,images/10n.tiff,,,,,,,1,3,9,1,,,,,,,,,,,,,95.99075150000863,,,,,,,,,,,,,,,,,,,,,,,,,,,,,,,,95.97976869996637,95.99075150000863,96.48412029992323,96.4841529999394,96.49728649994358,96.68401819991414,96.68404949991964,96.7054475999903,96.7054475999903,96.7054475999903,97.20365309994668,97.20365309994668,97.24458599998616,['z'],[0.5323759999591857],[None],,,,,,,,,,,,,,,,,,,,,,,,,,,,,,,,,,,,,,,,,,,,,,,,,,,,,,,,,,,,,,,,,,,,,,,,,,129950,001,2024-07-30_18h51.27.814,final,2024.1.5,None,2024-07-30 18h51.31.293271 +0530,
images/5n.tiff,images/5n.tiff,,,,,,,1,4,10,0,,,,,,,,,,,,,97.25694529991597,,,,,,,,,,,,,,,,,,,,,,,,,,,,,,,,97.2452957999194,97.25694529991597,97.75033389998134,97.75036669999827,97.7635006000055,97.95021209993865,97.95024259993806,97.96862800000235,97.96862800000235,97.96862800000235,98.469757999992,98.469757999992,98.68458869995084,['z'],[0.7084306000033394],[None],,,,,,,,,,,,,,,,,,,,,,,,,,,,,,,,,,,,,,,,,,,,,,,,,,,,,,,,,,,,,,,,,,,,,,,,,,129950,001,2024-07-30_18h51.27.814,final,2024.1.5,None,2024-07-30 18h51.31.293271 +0530,
images/10n.tiff,images/5n.tiff,,,,,,,1,5,11,3,,,,,,,,,,,,,98.69643479993101,,,,,,,,,,,,,,,,,,,,,,,,,,,,,,,,98.68572790001053,98.69643479993101,99.18971299997065,99.18974449997768,99.20293389994185,99.38969469990116,99.38972320000175,99.41210799990222,99.41210799990222,99.41210799990222,99.90925289993174,99.90925289993174,100.19210370001383,['m'],[0.7769447000464424],[None],,,,,,,,,,,,,,,,,,,,,,,,,,,,,,,,,,,,,,,,,,,,,,,,,,,,,,,,,,,,,,,,,,,,,,,,,,129950,001,2024-07-30_18h51.27.814,final,2024.1.5,None,2024-07-30 18h51.31.293271 +0530,
images/5n.tiff,images/5n.tiff,,,,,,,2,0,12,0,,,,,,,,,,,,,100.20251209998969,,,,,,,,,,,,,,,,,,,,,,,,,,,,,,,,100.19306099996902,100.20251209998969,100.69604279997293,100.69607579999138,100.7090132999001,100.89604769996367,100.89607989997603,100.91389969992451,100.91389969992451,100.91389969992451,101.41565929993521,101.41565929993521,101.53725099994335,['z'],[0.6199058999773115],[None],,,,,,,,,,,,,,,,,,,,,,,,,,,,,,,,,,,,,,,,,,,,,,,,,,,,,,,,,,,,,,,,,,,,,,,,,,129950,001,2024-07-30_18h51.27.814,final,2024.1.5,None,2024-07-30 18h51.31.293271 +0530,
images/5n.tiff,images/5n.tiff,,,,,,,2,1,13,4,,,,,,,,,,,,,101.54875749989878,,,,,,,,,,,,,,,,,,,,,,,,,,,,,,,,101.53883370000403,101.54875749989878,102.04209949995857,102.04211489995942,102.05533040000591,102.2421020999318,102.24213379994035,102.26362679991871,102.26362679991871,102.26362679991871,102.761856899946,102.761856899946,102.89591149997432,['z'],[0.6218963999999687],[None],,,,,,,,,,,,,,,,,,,,,,,,,,,,,,,,,,,,,,,,,,,,,,,,,,,,,,,,,,,,,,,,,,,,,,,,,,129950,001,2024-07-30_18h51.27.814,final,2024.1.5,None,2024-07-30 18h51.31.293271 +0530,
images/5n.tiff,images/10n.tiff,,,,,,,2,2,14,1,,,,,,,,,,,,,102.90819989994634,,,,,,,,,,,,,,,,,,,,,,,,,,,,,,,,102.89668649993837,102.90819989994634,103.40185869997367,103.40189519990236,103.41491729998961,103.60173679993022,103.6017625000095,103.61858949996531,103.61858949996531,103.61858949996531,104.12140489998274,104.12140489998274,104.28236939990893,['m'],[0.6507789000170305],[None],,,,,,,,,,,,,,,,,,,,,,,,,,,,,,,,,,,,,,,,,,,,,,,,,,,,,,,,,,,,,,,,,,,,,,,,,,129950,001,2024-07-30_18h51.27.814,final,2024.1.5,None,2024-07-30 18h51.31.293271 +0530,
images/10n.tiff,images/10n.tiff,,,,,,,2,3,15,5,,,,,,,,,,,,,104.29462539998349,,,,,,,,,,,,,,,,,,,,,,,,,,,,,,,,104.28319459990598,104.29462539998349,104.78782209998462,104.78785429999698,104.80111709993798,104.98783200001344,104.98786499991547,105.00689939991571,105.00689939991571,105.00689939991571,105.50758330000099,105.50758330000099,105.8542922999477,['m'],[0.8387460999656469],[None],,,,,,,,,,,,,,,,,,,,,,,,,,,,,,,,,,,,,,,,,,,,,,,,,,,,,,,,,,,,,,,,,,,,,,,,,,129950,001,2024-07-30_18h51.27.814,final,2024.1.5,None,2024-07-30 18h51.31.293271 +0530,
images/10n.tiff,images/5n.tiff,,,,,,,2,4,16,3,,,,,,,,,,,,,105.86715199996252,,,,,,,,,,,,,,,,,,,,,,,,,,,,,,,,105.85457769990899,105.86715199996252,106.36075879994314,106.36079179996159,106.3739316998981,106.56092289998196,106.56095809990074,106.5819442999782,106.5819442999782,106.5819442999782,107.08049269998446,107.08049269998446,107.4142978999298,['m'],[0.8232998999301344],[None],,,,,,,,,,,,,,,,,,,,,,,,,,,,,,,,,,,,,,,,,,,,,,,,,,,,,,,,,,,,,,,,,,,,,,,,,,129950,001,2024-07-30_18h51.27.814,final,2024.1.5,None,2024-07-30 18h51.31.293271 +0530,
images/10n.tiff,images/10n.tiff,,,,,,,2,5,17,2,,,,,,,,,,,,,107.42680359992664,,,,,,,,,,,,,,,,,,,,,,,,,,,,,,,,107.41476869990584,107.42680359992664,107.92024919996038,107.92028239998035,107.93341219995636,108.12042069993913,108.12045579997357,108.14125809993129,108.14125809993129,108.14125809993129,108.63997509994078,108.63997509994078,108.94840799993835,['z'],[0.8004287000512704],[None],,,,,,,,,,,,,,,,,,,,,,,,,,,,,,,,,,,,,,,,,,,,,,,,,,,,,,,,,,,,,,,,,,,,,,,,,,129950,001,2024-07-30_18h51.27.814,final,2024.1.5,None,2024-07-30 18h51.31.293271 +0530,
images/5n.tiff,images/5n.tiff,,,,,,,3,0,18,4,,,,,,,,,,,,,108.9598114999244,,,,,,,,,,,,,,,,,,,,,,,,,,,,,,,,108.94951889989898,108.9598114999244,109.45298469997942,109.45301009994,109.46620029991027,109.65300039993599,109.65303099993616,109.67363370000385,109.67363370000385,109.67363370000385,110.17273509991355,110.17273509991355,110.38678479997907,['z'],[0.7077478000428528],[None],,,,,,,,,,,,,,,,,,,,,,,,,,,,,,,,,,,,,,,,,,,,,,,,,,,,,,,,,,,,,,,,,,,,,,,,,,129950,001,2024-07-30_18h51.27.814,final,2024.1.5,None,2024-07-30 18h51.31.293271 +0530,
images/10n.tiff,images/10n.tiff,,,,,,,3,1,19,2,,,,,,,,,,,,,110.39922069991007,,,,,,,,,,,,,,,,,,,,,,,,,,,,,,,,110.38752429990564,110.39922069991007,110.89283419994172,110.89286389993504,110.90566910000052,111.09271409991197,111.09274649992585,111.11076760001015,111.11076760001015,111.11076760001015,111.6124484000029,111.6124484000029,111.93366059998516,['z'],[0.8142630999209359],[None],,,,,,,,,,,,,,,,,,,,,,,,,,,,,,,,,,,,,,,,,,,,,,,,,,,,,,,,,,,,,,,,,,,,,,,,,,129950,001,2024-07-30_18h51.27.814,final,2024.1.5,None,2024-07-30 18h51.31.293271 +0530,
images/10n.tiff,images/10n.tiff,,,,,,,3,2,20,5,,,,,,,,,,,,,111.94525809993502,,,,,,,,,,,,,,,,,,,,,,,,,,,,,,,,111.93464299989864,111.94525809993502,112.43902920000255,112.43906279990915,112.45214269997086,112.63869699998759,112.63872829999309,112.65746139991097,112.65746139991097,112.65746139991097,113.1584796999814,113.1584796999814,113.37258819991257,['z'],[0.7074898000573739],[None],,,,,,,,,,,,,,,,,,,,,,,,,,,,,,,,,,,,,,,,,,,,,,,,,,,,,,,,,,,,,,,,,,,,,,,,,,129950,001,2024-07-30_18h51.27.814,final,2024.1.5,None,2024-07-30 18h51.31.293271 +0530,
images/5n.tiff,images/10n.tiff,,,,,,,3,3,21,1,,,,,,,,,,,,,113.3847756999312,,,,,,,,,,,,,,,,,,,,,,,,,,,,,,,,113.37310039997101,113.3847756999312,113.87850240000989,113.87853789993096,113.89147249993403,114.07830249995459,114.07833439996466,114.0969969999278,114.0969969999278,114.0969969999278,114.59787569998298,114.59787569998298,114.76060109992977,['m'],[0.6604686999926344],[None],,,,,,,,,,,,,,,,,,,,,,,,,,,,,,,,,,,,,,,,,,,,,,,,,,,,,,,,,,,,,,,,,,,,,,,,,,129950,001,2024-07-30_18h51.27.814,final,2024.1.5,None,2024-07-30 18h51.31.293271 +0530,
images/10n.tiff,images/5n.tiff,,,,,,,3,4,22,3,,,,,,,,,,,,,114.77124869998079,,,,,,,,,,,,,,,,,,,,,,,,,,,,,,,,114.76161739998497,114.77124869998079,115.26445049990434,115.26448349992279,115.27769269992132,115.4644083000021,115.46444089990109,115.48425579990726,115.48425579990726,115.48425579990726,115.98393290000968,115.98393290000968,116.17227199999616,['m'],[0.6818339000456035],[None],,,,,,,,,,,,,,,,,,,,,,,,,,,,,,,,,,,,,,,,,,,,,,,,,,,,,,,,,,,,,,,,,,,,,,,,,,129950,001,2024-07-30_18h51.27.814,final,2024.1.5,None,2024-07-30 18h51.31.293271 +0530,
images/5n.tiff,images/5n.tiff,,,,,,,3,5,23,0,,,,,,,,,,,,,116.18402669997886,,,,,,,,,,,,,,,,,,,,,,,,,,,,,,,,116.17342080001254,116.18402669997886,116.67750869994052,116.67754309996963,116.69071839994285,116.87738379999064,116.87741640000604,116.89705819997471,116.89705819997471,116.89705819997471,117.39702529995702,117.39702529995702,117.61120839999057,['z'],[0.7079233999829739],[None],,,,,,,,,,,,,,,,,,,,,,,,,,,,,,,,,,,,,,,,,,,,,,,,,,,,,,,,,,,,,,,,,,,,,,,,,,129950,001,2024-07-30_18h51.27.814,final,2024.1.5,None,2024-07-30 18h51.31.293271 +0530,
images/10n.tiff,images/10n.tiff,,,,,,,4,0,24,2,,,,,,,,,,,,,117.62334990000818,,,,,,,,,,,,,,,,,,,,,,,,,,,,,,,,117.61182349990122,117.62334990000818,118.11689679999836,118.11692999990191,118.13021039997693,118.31699500000104,118.31702829990536,118.33514649991412,118.33514649991412,118.33514649991412,118.83634099992923,118.83634099992923,119.13104579993524,['z'],[0.7821707000257447],[None],,,,,,,,,,,,,,,,,,,,,,,,,,,,,,,,,,,,,,,,,,,,,,,,,,,,,,,,,,,,,,,,,,,,,,,,,,129950,001,2024-07-30_18h51.27.814,final,2024.1.5,None,2024-07-30 18h51.31.293271 +0530,
images/10n.tiff,images/10n.tiff,,,,,,,4,1,25,5,,,,,,,,,,,,,119.14285810000729,,,,,,,,,,,,,,,,,,,,,,,,,,,,,,,,119.13222949998453,119.14285810000729,119.63657430000603,119.6366057000123,119.6495389000047,119.83629859995563,119.83632939995732,119.85963979992084,119.85963979992084,119.85963979992084,120.35599509999156,120.35599509999156,120.50470679998398,['z'],[0.6424296000041068],[None],,,,,,,,,,,,,,,,,,,,,,,,,,,,,,,,,,,,,,,,,,,,,,,,,,,,,,,,,,,,,,,,,,,,,,,,,,129950,001,2024-07-30_18h51.27.814,final,2024.1.5,None,2024-07-30 18h51.31.293271 +0530,
images/10n.tiff,images/5n.tiff,,,,,,,4,2,26,3,,,,,,,,,,,,,120.51599859993439,,,,,,,,,,,,,,,,,,,,,,,,,,,,,,,,120.50549499993213,120.51599859993439,121.00930599996354,121.00933879998047,121.02235629991628,121.20929529995192,121.20932859997265,121.2289032000117,121.2289032000117,121.2289032000117,121.72893869993277,121.72893869993277,122.00960369990207,['m'],[0.7683481000130996],[None],,,,,,,,,,,,,,,,,,,,,,,,,,,,,,,,,,,,,,,,,,,,,,,,,,,,,,,,,,,,,,,,,,,,,,,,,,129950,001,2024-07-30_18h51.27.814,final,2024.1.5,None,2024-07-30 18h51.31.293271 +0530,
images/5n.tiff,images/5n.tiff,,,,,,,4,3,27,0,,,,,,,,,,,,,122.02199379995,,,,,,,,,,,,,,,,,,,,,,,,,,,,,,,,122.01024360000156,122.02199379995,122.51508829998784,122.51509889995214,122.52848579990678,122.71553619997576,122.71556929999497,122.73431689990684,122.73431689990684,122.73431689990684,123.2351847999962,123.2351847999962,124.62359759991523,['z'],[1.8866450999630615],[None],,,,,,,,,,,,,,,,,,,,,,,,,,,,,,,,,,,,,,,,,,,,,,,,,,,,,,,,,,,,,,,,,,,,,,,,,,129950,001,2024-07-30_18h51.27.814,final,2024.1.5,None,2024-07-30 18h51.31.293271 +0530,
images/5n.tiff,images/5n.tiff,,,,,,,4,4,28,4,,,,,,,,,,,,,124.63451569993049,,,,,,,,,,,,,,,,,,,,,,,,,,,,,,,,124.62457739992533,124.63451569993049,125.12791649997234,125.12794629996642,125.1409682999365,125.32804599998053,125.32808119989932,125.34769419999793,125.34769419999793,125.34769419999793,125.84769729990512,125.84769729990512,126.12899829994421,['z'],[0.7694501999067143],[None],,,,,,,,,,,,,,,,,,,,,,,,,,,,,,,,,,,,,,,,,,,,,,,,,,,,,,,,,,,,,,,,,,,,,,,,,,129950,001,2024-07-30_18h51.27.814,final,2024.1.5,None,2024-07-30 18h51.31.293271 +0530,
images/5n.tiff,images/10n.tiff,,,,,,,4,5,29,1,,,,,,,,,,,,,126.14070300001185,,,,,,,,,,,,,,,,,,,,,,,,,,,,,,,,126.12984740000684,126.14070300001185,126.6343584000133,126.63439149991609,126.64725489995908,126.8341721999459,126.83420509996358,126.85242379992269,126.85242379992269,126.85242379992269,127.35365259996615,127.35365259996615,127.66125519992784,['m'],[0.801458099973388],[None],,,,,,,,,,,,,,,,,,,,,,,,,,,,,,,,,,,,,,,,,,,,,,,,,,,,,,,,,,,,,,,,,,,,,,,,,,129950,001,2024-07-30_18h51.27.814,final,2024.1.5,None,2024-07-30 18h51.31.293271 +0530,
images/5n.tiff,images/5n.tiff,,,,,,,5,0,30,0,,,,,,,,,,,,,127.67372459999751,,,,,,,,,,,,,,,,,,,,,,,,,,,,,,,,127.66182649997063,127.67372459999751,128.16705109993927,128.1670882999897,128.17999370000325,128.36684149992652,128.36687189992517,128.38527319999412,128.38527319999412,128.38527319999412,128.88660909992177,128.88660909992177,129.1947472000029,['z'],[0.804437999962829],[None],,,,,,,,,,,,,,,,,,,,,,,,,,,,,,,,,,,,,,,,,,,,,,,,,,,,,,,,,,,,,,,,,,,,,,,,,,129950,001,2024-07-30_18h51.27.814,final,2024.1.5,None,2024-07-30 18h51.31.293271 +0530,
images/10n.tiff,images/10n.tiff,,,,,,,5,1,31,5,,,,,,,,,,,,,129.20646109990776,,,,,,,,,,,,,,,,,,,,,,,,,,,,,,,,129.19572159997188,129.20646109990776,129.69961499993224,129.69964859995525,129.71291599993128,129.8995310999453,129.89956019993406,129.91783389996272,129.91783389996272,129.91783389996272,130.4192558999639,130.4192558999639,131.0742388999788,['z'],[1.1514775999821723],[None],,,,,,,,,,,,,,,,,,,,,,,,,,,,,,,,,,,,,,,,,,,,,,,,,,,,,,,,,,,,,,,,,,,,,,,,,,129950,001,2024-07-30_18h51.27.814,final,2024.1.5,None,2024-07-30 18h51.31.293271 +0530,
images/5n.tiff,images/5n.tiff,,,,,,,5,2,32,4,,,,,,,,,,,,,131.08563949994277,,,,,,,,,,,,,,,,,,,,,,,,,,,,,,,,131.07513389992528,131.08563949994277,131.57927979994565,131.57932869996876,131.5923204999417,131.7789164999267,131.7789454999147,131.7989346999675,131.7989346999675,131.7989346999675,132.29868329991587,132.29868329991587,132.47382089996245,['z'],[0.6700912999222055],[None],,,,,,,,,,,,,,,,,,,,,,,,,,,,,,,,,,,,,,,,,,,,,,,,,,,,,,,,,,,,,,,,,,,,,,,,,,129950,001,2024-07-30_18h51.27.814,final,2024.1.5,None,2024-07-30 18h51.31.293271 +0530,
images/5n.tiff,images/10n.tiff,,,,,,,5,3,33,1,,,,,,,,,,,,,132.4851609999314,,,,,,,,,,,,,,,,,,,,,,,,,,,,,,,,132.47483839991037,132.4851609999314,132.97875050001312,132.9787830999121,132.99197539989837,133.1787733999081,133.1788116999669,133.20012309995946,133.20012309995946,133.20012309995946,133.69823599990923,133.69823599990923,133.83313749998342,['m'],[0.6295227999798954],[None],,,,,,,,,,,,,,,,,,,,,,,,,,,,,,,,,,,,,,,,,,,,,,,,,,,,,,,,,,,,,,,,,,,,,,,,,,129950,001,2024-07-30_18h51.27.814,final,2024.1.5,None,2024-07-30 18h51.31.293271 +0530,
images/10n.tiff,images/10n.tiff,,,,,,,5,4,34,2,,,,,,,,,,,,,133.84490579995327,,,,,,,,,,,,,,,,,,,,,,,,,,,,,,,,133.83426499995403,133.84490579995327,134.33829459990375,134.3383285999298,134.35152899997775,134.5382611999521,134.53829239995684,134.56156189995818,134.56156189995818,134.56156189995818,135.05769169994164,135.05769169994164,135.471902799909,['z'],[0.8997327999677509],[None],,,,,,,,,,,,,,,,,,,,,,,,,,,,,,,,,,,,,,,,,,,,,,,,,,,,,,,,,,,,,,,,,,,,,,,,,,129950,001,2024-07-30_18h51.27.814,final,2024.1.5,None,2024-07-30 18h51.31.293271 +0530,
images/10n.tiff,images/5n.tiff,,,,,,,5,5,35,3,,,,,,,,,,,,,135.4844080999028,,,,,,,,,,,,,,,,,,,,,,,,,,,,,,,,135.4725579000078,135.4844080999028,135.97782469994854,135.97786009998526,135.9909856999293,136.17777019995265,136.1778039999772,136.20002220000606,136.20002220000606,136.20002220000606,136.697138599935,136.697138599935,136.92485650000162,['m'],[0.7176338999997824],[None],,,,,,,,,,,,,,,,,,,,,,,,,,,,,,,,,,,,,,,,,,,,,,,,,,,,,,,,,,,,,,,,,,,,,,,,,,129950,001,2024-07-30_18h51.27.814,final,2024.1.5,None,2024-07-30 18h51.31.293271 +0530,
images/5n.tiff,images/5n.tiff,,,,,,,6,0,36,4,,,,,,,,,,,,,136.93700879998505,,,,,,,,,,,,,,,,,,,,,,,,,,,,,,,,136.92551839991938,136.93700879998505,137.43055279995315,137.43058689997997,137.44372430001386,137.6303382999031,137.6303599999519,137.6471419999143,137.6471419999143,137.6471419999143,138.15033749991562,138.15033749991562,138.95066609990317,['m'],[1.2939341999590397],[None],,,,,,,,,,,,,,,,,,,,,,,,,,,,,,,,,,,,,,,,,,,,,,,,,,,,,,,,,,,,,,,,,,,,,,,,,,129950,001,2024-07-30_18h51.27.814,final,2024.1.5,None,2024-07-30 18h51.31.293271 +0530,
images/10n.tiff,images/10n.tiff,,,,,,,6,1,37,2,,,,,,,,,,,,,138.9632791999029,,,,,,,,,,,,,,,,,,,,,,,,,,,,,,,,138.95111369993538,138.9632791999029,139.45648049993906,139.45651119994,139.46971209999174,139.6564195000101,139.65644799999427,139.67443549993914,139.67443549993914,139.67443549993914,140.17610599996988,140.17610599996988,140.47038999991491,['m'],[0.7871756999520585],[None],,,,,,,,,,,,,,,,,,,,,,,,,,,,,,,,,,,,,,,,,,,,,,,,,,,,,,,,,,,,,,,,,,,,,,,,,,129950,001,2024-07-30_18h51.27.814,final,2024.1.5,None,2024-07-30 18h51.31.293271 +0530,
images/5n.tiff,images/5n.tiff,,,,,,,6,2,38,0,,,,,,,,,,,,,140.48267319996376,,,,,,,,,,,,,,,,,,,,,,,,,,,,,,,,140.47094779997133,140.48267319996376,140.97635999997146,140.97639879991766,140.98936829995364,141.17616989999078,141.17619839997496,141.1960151999956,141.1960151999956,141.1960151999956,141.69564139994327,141.69564139994327,141.81600549991708,['z'],[0.6090176999568939],[None],,,,,,,,,,,,,,,,,,,,,,,,,,,,,,,,,,,,,,,,,,,,,,,,,,,,,,,,,,,,,,,,,,,,,,,,,,129950,001,2024-07-30_18h51.27.814,final,2024.1.5,None,2024-07-30 18h51.31.293271 +0530,
images/10n.tiff,images/5n.tiff,,,,,,,6,3,39,3,,,,,,,,,,,,,141.82888009992894,,,,,,,,,,,,,,,,,,,,,,,,,,,,,,,,141.8164871999761,141.82888009992894,142.32232709997334,142.32235689996742,142.33556009992026,142.52229329990223,142.52232280001044,142.54460919997655,142.54460919997655,142.54460919997655,143.04207490000408,143.04207490000408,143.24240719992667,['m'],[0.6854544000234455],[None],,,,,,,,,,,,,,,,,,,,,,,,,,,,,,,,,,,,,,,,,,,,,,,,,,,,,,,,,,,,,,,,,,,,,,,,,,129950,001,2024-07-30_18h51.27.814,final,2024.1.5,None,2024-07-30 18h51.31.293271 +0530,
images/5n.tiff,images/10n.tiff,,,,,,,6,4,40,1,,,,,,,,,,,,,143.25502579996828,,,,,,,,,,,,,,,,,,,,,,,,,,,,,,,,143.2428923000116,143.25502579996828,143.74857719999272,143.748658199911,143.76171859994065,143.94838039996102,143.94840959995054,143.96813069994096,143.96813069994096,143.96813069994096,144.46813529997598,144.46813529997598,144.76262799999677,['m'],[0.7890586999710649],[None],,,,,,,,,,,,,,,,,,,,,,,,,,,,,,,,,,,,,,,,,,,,,,,,,,,,,,,,,,,,,,,,,,,,,,,,,,129950,001,2024-07-30_18h51.27.814,final,2024.1.5,None,2024-07-30 18h51.31.293271 +0530,
images/10n.tiff,images/10n.tiff,,,,,,,6,5,41,5,,,,,,,,,,,,,144.77463070000522,,,,,,,,,,,,,,,,,,,,,,,,,,,,,,,,144.76346549997106,144.77463070000522,145.2681560999481,145.26819219999015,145.28132379997987,145.4680958999088,145.46812739991583,145.4890622999519,145.4890622999519,145.4890622999519,145.98756779998075,145.98756779998075,146.28217249992304,['z'],[0.7885810000589117],[None],,,,,,,,,,,,,,,,,,,,,,,,,,,,,,,,,,,,,,,,,,,,,,,,,,,,,,,,,,,,,,,,,,,,,,,,,,129950,001,2024-07-30_18h51.27.814,final,2024.1.5,None,2024-07-30 18h51.31.293271 +0530,
images/10n.tiff,images/5n.tiff,,,,,,,7,0,42,3,,,,,,,,,,,,,146.29410780000035,,,,,,,,,,,,,,,,,,,,,,,,,,,,,,,,146.28299489989877,146.29410780000035,146.78748199995607,146.78751419996843,146.8006179999793,146.98760999995284,146.98765909997746,147.0079054000089,147.0079054000089,147.0079054000089,147.50712699990254,147.50712699990254,148.96134569996502,['m'],[1.9416309000225738],[None],,,,,,,,,,,,,,,,,,,,,,,,,,,,,,,,,,,,,,,,,,,,,,,,,,,,,,,,,,,,,,,,,,,,,,,,,,129950,001,2024-07-30_18h51.27.814,final,2024.1.5,None,2024-07-30 18h51.31.293271 +0530,
images/5n.tiff,images/10n.tiff,,,,,,,7,1,43,1,,,,,,,,,,,,,148.97321109997574,,,,,,,,,,,,,,,,,,,,,,,,,,,,,,,,148.96233729994856,148.97321109997574,149.46677709999494,149.46681199991144,149.4798857999267,149.6665415999014,149.6665733999107,149.68632009997964,149.68632009997964,149.68632009997964,150.1863483999623,150.1863483999623,150.42781499994453,['m'],[0.7353339999681339],[None],,,,,,,,,,,,,,,,,,,,,,,,,,,,,,,,,,,,,,,,,,,,,,,,,,,,,,,,,,,,,,,,,,,,,,,,,,129950,001,2024-07-30_18h51.27.814,final,2024.1.5,None,2024-07-30 18h51.31.293271 +0530,
images/10n.tiff,images/10n.tiff,,,,,,,7,2,44,2,,,,,,,,,,,,,150.43955739995,,,,,,,,,,,,,,,,,,,,,,,,,,,,,,,,150.42873939999845,150.43955739995,150.93250019999687,150.93251519999467,150.9456992999185,151.1325925999554,151.13261889992282,151.15087119990494,151.15087119990494,151.15087119990494,151.65248589997645,151.65248589997645,152.00092669995502,['z'],[0.8464994999812916],[None],,,,,,,,,,,,,,,,,,,,,,,,,,,,,,,,,,,,,,,,,,,,,,,,,,,,,,,,,,,,,,,,,,,,,,,,,,129950,001,2024-07-30_18h51.27.814,final,2024.1.5,None,2024-07-30 18h51.31.293271 +0530,
images/10n.tiff,images/10n.tiff,,,,,,,7,3,45,5,,,,,,,,,,,,,152.0120539999334,,,,,,,,,,,,,,,,,,,,,,,,,,,,,,,,152.00178529997356,152.0120539999334,152.5057268999517,152.505760799977,152.51887809997424,152.70539499993902,152.70544129994232,152.7232006000122,152.7232006000122,152.7232006000122,153.2252726999577,153.2252726999577,153.42726439994294,['z'],[0.6900711000198498],[None],,,,,,,,,,,,,,,,,,,,,,,,,,,,,,,,,,,,,,,,,,,,,,,,,,,,,,,,,,,,,,,,,,,,,,,,,,129950,001,2024-07-30_18h51.27.814,final,2024.1.5,None,2024-07-30 18h51.31.293271 +0530,
images/5n.tiff,images/5n.tiff,,,,,,,7,4,46,0,,,,,,,,,,,,,153.4385904999217,,,,,,,,,,,,,,,,,,,,,,,,,,,,,,,,153.42838199995458,153.4385904999217,153.93163849995472,153.9316690999549,153.94496150000487,154.1318359998986,154.13186979992315,154.1510622999631,154.1510622999631,154.1510622999631,154.65133459994104,154.65133459994104,154.81320869992487,['z'],[0.6547041999874637],[None],,,,,,,,,,,,,,,,,,,,,,,,,,,,,,,,,,,,,,,,,,,,,,,,,,,,,,,,,,,,,,,,,,,,,,,,,,129950,001,2024-07-30_18h51.27.814,final,2024.1.5,None,2024-07-30 18h51.31.293271 +0530,
images/5n.tiff,images/5n.tiff,,,,,,,7,5,47,4,,,,,,,,,,,,,154.8244290999137,,,,,,,,,,,,,,,,,,,,,,,,,,,,,,,,154.81401929992717,154.8244290999137,155.31804669997655,155.3180783999851,155.33108339994214,155.51813290000428,155.5181658999063,155.5372213999508,155.5372213999508,155.5372213999508,156.03796589991543,156.03796589991543,156.11888219998218,['z'],[0.5800324999727309],[None],,,,,,,,,,,,,,,,,,,,,,,,,,,,,,,,,,,,,,,,,,,,,,,,,,,,,,,,,,,,,,,,,,,,,,,,,,129950,001,2024-07-30_18h51.27.814,final,2024.1.5,None,2024-07-30 18h51.31.293271 +0530,
images/10n.tiff,images/10n.tiff,,,,,,,8,0,48,2,,,,,,,,,,,,,156.13088889990468,,,,,,,,,,,,,,,,,,,,,,,,,,,,,,,,156.11956089991145,156.13088889990468,156.62420560000464,156.62423690001015,156.63735410000663,156.82423429994378,156.82426679995842,156.84258789999876,156.84258789999876,156.84258789999876,157.3438301999122,157.3438301999122,157.772014999995,['z'],[0.9152328999480233],[None],,,,,,,,,,,,,,,,,,,,,,,,,,,,,,,,,,,,,,,,,,,,,,,,,,,,,,,,,,,,,,,,,,,,,,,,,,129950,001,2024-07-30_18h51.27.814,final,2024.1.5,None,2024-07-30 18h51.31.293271 +0530,
images/5n.tiff,images/5n.tiff,,,,,,,8,1,49,0,,,,,,,,,,,,,157.78367769997567,,,,,,,,,,,,,,,,,,,,,,,,,,,,,,,,157.77302189997863,157.78367769997567,158.27708339993842,158.27711669995915,158.2900833999738,158.4771841999609,158.4772128999466,158.4958706999896,158.4958706999896,158.4958706999896,158.99671310000122,158.99671310000122,159.19775679998565,['z'],[0.6932892999611795],[None],,,,,,,,,,,,,,,,,,,,,,,,,,,,,,,,,,,,,,,,,,,,,,,,,,,,,,,,,,,,,,,,,,,,,,,,,,129950,001,2024-07-30_18h51.27.814,final,2024.1.5,None,2024-07-30 18h51.31.293271 +0530,
images/10n.tiff,images/5n.tiff,,,,,,,8,2,50,3,,,,,,,,,,,,,159.20970379991923,,,,,,,,,,,,,,,,,,,,,,,,,,,,,,,,159.19834749994334,159.20970379991923,159.70329799992032,159.70333179994486,159.71640209993348,159.90342409990262,159.9034577999264,159.92160299990792,159.92160299990792,159.92160299990792,160.42284379992634,160.42284379992634,161.266235099989,['z'],[1.3400713000446558],[None],,,,,,,,,,,,,,,,,,,,,,,,,,,,,,,,,,,,,,,,,,,,,,,,,,,,,,,,,,,,,,,,,,,,,,,,,,129950,001,2024-07-30_18h51.27.814,final,2024.1.5,None,2024-07-30 18h51.31.293271 +0530,
images/10n.tiff,images/10n.tiff,,,,,,,8,3,51,5,,,,,,,,,,,,,161.27582819992676,,,,,,,,,,,,,,,,,,,,,,,,,,,,,,,,161.26707890001126,161.27582819992676,161.76916959998198,161.76919999998063,161.78251499996986,161.96906349994242,161.9691196999047,161.99045059992932,161.99045059992932,161.99045059992932,162.48877809999976,162.48877809999976,162.91627549997065,['z'],[0.9188302999828011],[None],,,,,,,,,,,,,,,,,,,,,,,,,,,,,,,,,,,,,,,,,,,,,,,,,,,,,,,,,,,,,,,,,,,,,,,,,,129950,001,2024-07-30_18h51.27.814,final,2024.1.5,None,2024-07-30 18h51.31.293271 +0530,
images/5n.tiff,images/5n.tiff,,,,,,,8,4,52,4,,,,,,,,,,,,,162.92859109991696,,,,,,,,,,,,,,,,,,,,,,,,,,,,,,,,162.9168812999269,162.92859109991696,163.42233569989912,163.42237319995183,163.4352257999126,163.62201799999457,163.6220508000115,163.6421990999952,163.6421990999952,163.6421990999952,164.14171489991713,164.14171489991713,164.59506179997697,['z'],[0.9473553000716493],[None],,,,,,,,,,,,,,,,,,,,,,,,,,,,,,,,,,,,,,,,,,,,,,,,,,,,,,,,,,,,,,,,,,,,,,,,,,129950,001,2024-07-30_18h51.27.814,final,2024.1.5,None,2024-07-30 18h51.31.293271 +0530,
images/5n.tiff,images/10n.tiff,,,,,,,8,5,53,1,,,,,,,,,,,,,164.60773319995496,,,,,,,,,,,,,,,,,,,,,,,,,,,,,,,,164.5953610999277,164.60773319995496,165.10159269999713,165.10162719991058,165.11470509995706,165.3015094998991,165.3015410999069,165.3204627999803,165.3204627999803,165.3204627999803,165.82128679996822,165.82128679996822,166.11578939994797,['m'],[0.7889474999392405],[None],,,,,,,,,,,,,,,,,,,,,,,,,,,,,,,,,,,,,,,,,,,,,,,,,,,,,,,,,,,,,,,,,,,,,,,,,,129950,001,2024-07-30_18h51.27.814,final,2024.1.5,None,2024-07-30 18h51.31.293271 +0530,
images/5n.tiff,images/5n.tiff,,,,,,,9,0,54,4,,,,,,,,,,,,,166.1276645999169,,,,,,,,,,,,,,,,,,,,,,,,,,,,,,,,166.11676389991771,166.1276645999169,166.62076319998596,166.6207728999434,166.6341236999724,166.82099309994373,166.82105639996007,166.84095689991955,166.84095689991955,166.84095689991955,167.34062719997019,167.34062719997019,167.83425999991596,['z'],[0.9805811999831349],[None],,,,,,,,,,,,,,,,,,,,,,,,,,,,,,,,,,,,,,,,,,,,,,,,,,,,,,,,,,,,,,,,,,,,,,,,,,129950,001,2024-07-30_18h51.27.814,final,2024.1.5,None,2024-07-30 18h51.31.293271 +0530,
images/10n.tiff,images/10n.tiff,,,,,,,9,1,55,2,,,,,,,,,,,,,167.8468660999788,,,,,,,,,,,,,,,,,,,,,,,,,,,,,,,,167.8346124999225,167.8468660999788,168.3403709999984,168.34040230000392,168.35352939995937,168.54014119994827,168.54015539993998,168.55735019990243,168.55735019990243,168.55735019990243,169.0599649999058,169.0599649999058,169.55355159996543,['z'],[0.9836061000823975],[None],,,,,,,,,,,,,,,,,,,,,,,,,,,,,,,,,,,,,,,,,,,,,,,,,,,,,,,,,,,,,,,,,,,,,,,,,,129950,001,2024-07-30_18h51.27.814,final,2024.1.5,None,2024-07-30 18h51.31.293271 +0530,
images/5n.tiff,images/10n.tiff,,,,,,,9,2,56,1,,,,,,,,,,,,,169.56637789995875,,,,,,,,,,,,,,,,,,,,,,,,,,,,,,,,169.5539848000044,169.56637789995875,170.05981979996432,170.05985289998353,170.07297779992223,170.25973319995683,170.25976469996385,170.27724019996822,170.27724019996822,170.27724019996822,170.77952439989895,170.77952439989895,171.35289809992537,['m'],[1.063951799995266],[None],,,,,,,,,,,,,,,,,,,,,,,,,,,,,,,,,,,,,,,,,,,,,,,,,,,,,,,,,,,,,,,,,,,,,,,,,,129950,001,2024-07-30_18h51.27.814,final,2024.1.5,None,2024-07-30 18h51.31.293271 +0530,
images/10n.tiff,images/5n.tiff,,,,,,,9,3,57,3,,,,,,,,,,,,,171.36570490000304,,,,,,,,,,,,,,,,,,,,,,,,,,,,,,,,171.35328369995113,171.36570490000304,171.85921969998162,171.8592507999856,171.87247840000782,172.0593284999486,172.05936099996325,172.08098709990736,172.08098709990736,172.08098709990736,172.57881410000846,172.57881410000846,173.39258109999355,['m'],[1.300395100028254],[None],,,,,,,,,,,,,,,,,,,,,,,,,,,,,,,,,,,,,,,,,,,,,,,,,,,,,,,,,,,,,,,,,,,,,,,,,,129950,001,2024-07-30_18h51.27.814,final,2024.1.5,None,2024-07-30 18h51.31.293271 +0530,
images/5n.tiff,images/5n.tiff,,,,,,,9,4,58,0,,,,,,,,,,,,,173.40508789999876,,,,,,,,,,,,,,,,,,,,,,,,,,,,,,,,173.39300309994724,173.40508789999876,173.89854319998994,173.89857570000459,173.9117305999389,174.09850480000023,174.09853600000497,174.11848770000506,174.11848770000506,174.11848770000506,174.61822820000816,174.61822820000816,174.89916949998587,['z'],[0.7744975999230519],[None],,,,,,,,,,,,,,,,,,,,,,,,,,,,,,,,,,,,,,,,,,,,,,,,,,,,,,,,,,,,,,,,,,,,,,,,,,129950,001,2024-07-30_18h51.27.814,final,2024.1.5,None,2024-07-30 18h51.31.293271 +0530,
images/10n.tiff,images/10n.tiff,,,,,,,9,5,59,5,,,,,,,,,,,,,174.91146470000967,,,,,,,,,,,,,,,,,,,,,,,,,,,,,,,,174.89991939999163,174.91146470000967,175.4046178999124,175.40464939991944,175.41788299998734,175.6045548999682,175.60461459995713,175.62564579991158,175.62564579991158,175.62564579991158,176.12429019995034,176.12429019995034,176.33909309993032,['z'],[0.7078234000364318],[None],,,,,,,,,,,,,,,,,,,,,,,,,,,,,,,,,,,,,,,,,,,,,,,,,,,,,,,,,,,,,,,,,,,,,,,,,,129950,001,2024-07-30_18h51.27.814,final,2024.1.5,None,2024-07-30 18h51.31.293271 +0530,
,,,,,,,,,,,,,,,,,,,,,,,,,,,,,,,,,,,,,,,,,,,,,,,,,,,,,,,,,,,,,,,,,,,,,,,,176.3398576999316,176.35098479990847,176.35098479990847,177.23114359995816,space,0.8701051999814808,None,,,,,,,,,,,,,,,,,,,,,,,,,,,,,,,,,,,,,,,,,,,,,,,,,,,,,,,,,,,,,,,,,,,129950,001,2024-07-30_18h51.27.814,final,2024.1.5,None,2024-07-30 18h51.31.293271 +0530,
images/4n.tiff,images/4n.tiff,,,,,,,,,,,0,0,0,4,,,,,,,,,177.24379380000755,,,,,,,,,,,,,,,,,,,,,,,,,,,,,,,,,,,,,,,,,,,,,,,,,,,,,,,177.239777199924,177.24379380000755,177.73742519994266,177.73748109990265,177.7505572999362,177.9372986999806,177.93733009998687,177.96149529994,177.96149529994,177.96149529994,178.4702841999242,178.4702841999242,178.7386219999753,['z'],[0.7722429999848828],[None],,,,,,,,,,,,,,,,,,,,,,,,,,,,,,,,,,,,,,,,,,,,,,,,,,,129950,001,2024-07-30_18h51.27.814,final,2024.1.5,None,2024-07-30 18h51.31.293271 +0530,
images/18n.tiff,images/18n.tiff,,,,,,,,,,,0,1,1,3,,,,,,,,,178.7500276999781,,,,,,,,,,,,,,,,,,,,,,,,,,,,,,,,,,,,,,,,,,,,,,,,,,,,,,,178.7400826999219,178.7500276999781,179.2433447999647,179.24337939999532,179.256637299899,179.44325199991,179.44328359991778,179.46123799995985,179.46123799995985,179.46123799995985,179.96308469993528,179.96308469993528,180.24395309993997,['z'],[0.7757815999211743],[None],,,,,,,,,,,,,,,,,,,,,,,,,,,,,,,,,,,,,,,,,,,,,,,,,,,129950,001,2024-07-30_18h51.27.814,final,2024.1.5,None,2024-07-30 18h51.31.293271 +0530,
images/18n.tiff,images/18n.tiff,,,,,,,,,,,0,2,2,5,,,,,,,,,180.25625629990827,,,,,,,,,,,,,,,,,,,,,,,,,,,,,,,,,,,,,,,,,,,,,,,,,,,,,,,180.2448075999273,180.25625629990827,180.74972179997712,180.74975759990048,180.7629037000006,180.9498282999266,180.9498592999298,180.96936039999127,180.96936039999127,180.96936039999127,181.46932429994922,181.46932429994922,181.57617739995476,['z'],[0.5955923000583425],[None],,,,,,,,,,,,,,,,,,,,,,,,,,,,,,,,,,,,,,,,,,,,,,,,,,,129950,001,2024-07-30_18h51.27.814,final,2024.1.5,None,2024-07-30 18h51.31.293271 +0530,
images/4n.tiff,images/18n.tiff,,,,,,,,,,,0,3,3,0,,,,,,,,,181.5890894999029,,,,,,,,,,,,,,,,,,,,,,,,,,,,,,,,,,,,,,,,,,,,,,,,,,,,,,,181.57656059996225,181.5890894999029,182.08238889998756,182.08242280001286,182.09569849993568,182.28243819996715,182.28248429996893,182.30168269993737,182.30168269993737,182.30168269993737,182.8020673999563,182.8020673999563,182.9234133999562,['m'],[0.6156594000058249],[None],,,,,,,,,,,,,,,,,,,,,,,,,,,,,,,,,,,,,,,,,,,,,,,,,,,129950,001,2024-07-30_18h51.27.814,final,2024.1.5,None,2024-07-30 18h51.31.293271 +0530,
images/4n.tiff,images/4n.tiff,,,,,,,,,,,0,4,4,1,,,,,,,,,182.93548829993233,,,,,,,,,,,,,,,,,,,,,,,,,,,,,,,,,,,,,,,,,,,,,,,,,,,,,,,182.9243836000096,182.93548829993233,183.4289707998978,183.42900559992995,183.44181429990567,183.62886159995105,183.62889039993752,183.65078969998285,183.65078969998285,183.65078969998285,184.14848129998427,184.14848129998427,184.44263149995822,['z'],[0.7781882000854239],[None],,,,,,,,,,,,,,,,,,,,,,,,,,,,,,,,,,,,,,,,,,,,,,,,,,,129950,001,2024-07-30_18h51.27.814,final,2024.1.5,None,2024-07-30 18h51.31.293271 +0530,
images/18n.tiff,images/4n.tiff,,,,,,,,,,,0,5,5,2,,,,,,,,,184.4550226998981,,,,,,,,,,,,,,,,,,,,,,,,,,,,,,,,,,,,,,,,,,,,,,,,,,,,,,,184.44371269992553,184.4550226998981,184.94830579997506,184.94834000000264,184.96128299995326,185.1482138999272,185.14824709994718,185.17042029998265,185.17042029998265,185.17042029998265,185.66793979995418,185.66793979995418,185.89593409991357,['m'],[0.7155047999694943],[None],,,,,,,,,,,,,,,,,,,,,,,,,,,,,,,,,,,,,,,,,,,,,,,,,,,129950,001,2024-07-30_18h51.27.814,final,2024.1.5,None,2024-07-30 18h51.31.293271 +0530,
images/4n.tiff,images/4n.tiff,,,,,,,,,,,1,0,6,1,,,,,,,,,185.90786659996957,,,,,,,,,,,,,,,,,,,,,,,,,,,,,,,,,,,,,,,,,,,,,,,,,,,,,,,185.89717059989925,185.90786659996957,186.40098109992687,186.4010143999476,186.4143457999453,186.6009567999281,186.6009893999435,186.61899529991206,186.61899529991206,186.61899529991206,187.12066129990853,187.12066129990853,187.21605779998936,['z'],[0.5942583000287414],[None],,,,,,,,,,,,,,,,,,,,,,,,,,,,,,,,,,,,,,,,,,,,,,,,,,,129950,001,2024-07-30_18h51.27.814,final,2024.1.5,None,2024-07-30 18h51.31.293271 +0530,
images/18n.tiff,images/18n.tiff,,,,,,,,,,,1,1,7,5,,,,,,,,,187.22732119995635,,,,,,,,,,,,,,,,,,,,,,,,,,,,,,,,,,,,,,,,,,,,,,,,,,,,,,,187.21711099997628,187.22732119995635,187.72056219994556,187.7205936999526,187.73390029999427,187.92050169990398,187.9205357999308,187.9401455000043,187.9401455000043,187.9401455000043,188.44046359998174,188.44046359998174,188.72171799989883,['z'],[0.7773097000317648],[None],,,,,,,,,,,,,,,,,,,,,,,,,,,,,,,,,,,,,,,,,,,,,,,,,,,129950,001,2024-07-30_18h51.27.814,final,2024.1.5,None,2024-07-30 18h51.31.293271 +0530,
images/18n.tiff,images/4n.tiff,,,,,,,,,,,1,2,8,2,,,,,,,,,188.7335731999483,,,,,,,,,,,,,,,,,,,,,,,,,,,,,,,,,,,,,,,,,,,,,,,,,,,,,,,188.72284319996834,188.7335731999483,189.22694009996485,189.2269762000069,189.2400252999505,189.42686010000762,189.42689209990203,189.44874699995853,189.44874699995853,189.44874699995853,189.94651409995276,189.94651409995276,190.60099079995416,['z'],[1.1406834000954404],[None],,,,,,,,,,,,,,,,,,,,,,,,,,,,,,,,,,,,,,,,,,,,,,,,,,,129950,001,2024-07-30_18h51.27.814,final,2024.1.5,None,2024-07-30 18h51.31.293271 +0530,
images/18n.tiff,images/18n.tiff,,,,,,,,,,,1,3,9,3,,,,,,,,,190.61298869992606,,,,,,,,,,,,,,,,,,,,,,,,,,,,,,,,,,,,,,,,,,,,,,,,,,,,,,,190.60216309991665,190.61298869992606,191.10638729995117,191.1064253000077,191.1194163999753,191.3062400999479,191.30627289996482,191.3295167000033,191.3295167000033,191.3295167000033,191.8259296999313,191.8259296999313,192.84068229992408,['z'],[1.5078843000810593],[None],,,,,,,,,,,,,,,,,,,,,,,,,,,,,,,,,,,,,,,,,,,,,,,,,,,129950,001,2024-07-30_18h51.27.814,final,2024.1.5,None,2024-07-30 18h51.31.293271 +0530,
images/4n.tiff,images/18n.tiff,,,,,,,,,,,1,4,10,0,,,,,,,,,192.85228759993333,,,,,,,,,,,,,,,,,,,,,,,,,,,,,,,,,,,,,,,,,,,,,,,,,,,,,,,192.8418856000062,192.85228759993333,193.34557819995098,193.34561379998922,193.358822899987,193.54549279995263,193.54552449996118,193.5670783999376,193.5670783999376,193.5670783999376,194.06519120000303,194.06519120000303,194.83986099995673,['m'],[1.262678400031291],[None],,,,,,,,,,,,,,,,,,,,,,,,,,,,,,,,,,,,,,,,,,,,,,,,,,,129950,001,2024-07-30_18h51.27.814,final,2024.1.5,None,2024-07-30 18h51.31.293271 +0530,
images/4n.tiff,images/4n.tiff,,,,,,,,,,,1,5,11,4,,,,,,,,,194.85166069993284,,,,,,,,,,,,,,,,,,,,,,,,,,,,,,,,,,,,,,,,,,,,,,,,,,,,,,,194.84104199998546,194.85166069993284,195.3449317999184,195.34496399993077,195.35801779991016,195.54485169996042,195.54488399997354,195.5651200999273,195.5651200999273,195.5651200999273,196.06455779995304,196.06455779995304,196.55896880000364,['z'],[0.9917910000076517],[None],,,,,,,,,,,,,,,,,,,,,,,,,,,,,,,,,,,,,,,,,,,,,,,,,,,129950,001,2024-07-30_18h51.27.814,final,2024.1.5,None,2024-07-30 18h51.31.293271 +0530,
images/4n.tiff,images/18n.tiff,,,,,,,,,,,2,0,12,0,,,,,,,,,196.57099929999094,,,,,,,,,,,,,,,,,,,,,,,,,,,,,,,,,,,,,,,,,,,,,,,,,,,,,,,196.5596842999803,196.57099929999094,197.06434229994193,197.0643772999756,197.07748109998647,197.26427749998402,197.26431100000627,197.28352479997557,197.28352479997557,197.28352479997557,197.78396469994914,197.78396469994914,199.46508259989787,['m'],[2.1778022000798956],[None],,,,,,,,,,,,,,,,,,,,,,,,,,,,,,,,,,,,,,,,,,,,,,,,,,,129950,001,2024-07-30_18h51.27.814,final,2024.1.5,None,2024-07-30 18h51.31.293271 +0530,
images/18n.tiff,images/4n.tiff,,,,,,,,,,,2,1,13,2,,,,,,,,,199.47664070001338,,,,,,,,,,,,,,,,,,,,,,,,,,,,,,,,,,,,,,,,,,,,,,,,,,,,,,,199.46619209996425,199.47664070001338,199.97013399994466,199.97017679992132,199.9832349999342,200.17003159993328,200.17006299993955,200.1907963999547,200.1907963999547,200.1907963999547,200.68966899998486,200.68966899998486,201.0642768999096,['m'],[0.8622474999865517],[None],,,,,,,,,,,,,,,,,,,,,,,,,,,,,,,,,,,,,,,,,,,,,,,,,,,129950,001,2024-07-30_18h51.27.814,final,2024.1.5,None,2024-07-30 18h51.31.293271 +0530,
images/18n.tiff,images/18n.tiff,,,,,,,,,,,2,2,14,3,,,,,,,,,201.07608009991236,,,,,,,,,,,,,,,,,,,,,,,,,,,,,,,,,,,,,,,,,,,,,,,,,,,,,,,201.0653755000094,201.07608009991236,201.56954870000482,201.56958299991675,201.58270709996577,201.7695366999833,201.76956829999108,201.7876655999571,201.7876655999571,201.7876655999571,202.28914389992133,202.28914389992133,202.8242228999734,['z'],[1.0337302000261843],[None],,,,,,,,,,,,,,,,,,,,,,,,,,,,,,,,,,,,,,,,,,,,,,,,,,,129950,001,2024-07-30_18h51.27.814,final,2024.1.5,None,2024-07-30 18h51.31.293271 +0530,
images/4n.tiff,images/4n.tiff,,,,,,,,,,,2,3,15,4,,,,,,,,,202.8355224999832,,,,,,,,,,,,,,,,,,,,,,,,,,,,,,,,,,,,,,,,,,,,,,,,,,,,,,,202.82532909989823,202.8355224999832,203.32898260001093,203.3290162999183,203.3421952999197,203.52910209994297,203.52913549996447,203.54752529994585,203.54752529994585,203.54752529994585,204.04857639991678,204.04857639991678,204.22416629991494,['z'],[0.6737233999883756],[None],,,,,,,,,,,,,,,,,,,,,,,,,,,,,,,,,,,,,,,,,,,,,,,,,,,129950,001,2024-07-30_18h51.27.814,final,2024.1.5,None,2024-07-30 18h51.31.293271 +0530,
images/18n.tiff,images/18n.tiff,,,,,,,,,,,2,4,16,5,,,,,,,,,204.23505589994602,,,,,,,,,,,,,,,,,,,,,,,,,,,,,,,,,,,,,,,,,,,,,,,,,,,,,,,204.2251427998999,204.23505589994602,204.72856999991927,204.7286024999339,204.74166910001077,204.92842529993504,204.92845379991923,204.94634229992516,204.94634229992516,204.94634229992516,205.44810869998764,205.44810869998764,205.7035753999371,['z'],[0.7546881000744179],[None],,,,,,,,,,,,,,,,,,,,,,,,,,,,,,,,,,,,,,,,,,,,,,,,,,,129950,001,2024-07-30_18h51.27.814,final,2024.1.5,None,2024-07-30 18h51.31.293271 +0530,
images/4n.tiff,images/4n.tiff,,,,,,,,,,,2,5,17,1,,,,,,,,,205.7145518999314,,,,,,,,,,,,,,,,,,,,,,,,,,,,,,,,,,,,,,,,,,,,,,,,,,,,,,,205.7050410999218,205.7145518999314,206.2080935999984,206.20818919991143,206.22119849990122,206.40802849992178,206.40806019993033,206.42736809991766,206.42736809991766,206.42736809991766,206.92775669996627,206.92775669996627,207.23531789996196,['z'],[0.7942040000343695],[None],,,,,,,,,,,,,,,,,,,,,,,,,,,,,,,,,,,,,,,,,,,,,,,,,,,129950,001,2024-07-30_18h51.27.814,final,2024.1.5,None,2024-07-30 18h51.31.293271 +0530,
images/18n.tiff,images/18n.tiff,,,,,,,,,,,3,0,18,5,,,,,,,,,207.24750229995698,,,,,,,,,,,,,,,,,,,,,,,,,,,,,,,,,,,,,,,,,,,,,,,,,,,,,,,207.23645109997597,207.24750229995698,207.74088139995,207.74091489997227,207.7539592999965,207.94080849993043,207.94084059994202,207.96006459998898,207.96006459998898,207.96006459998898,208.460526599898,208.460526599898,209.0616952999262,['z'],[1.09358969994355],[None],,,,,,,,,,,,,,,,,,,,,,,,,,,,,,,,,,,,,,,,,,,,,,,,,,,129950,001,2024-07-30_18h51.27.814,final,2024.1.5,None,2024-07-30 18h51.31.293271 +0530,
images/18n.tiff,images/18n.tiff,,,,,,,,,,,3,1,19,3,,,,,,,,,209.07350239995867,,,,,,,,,,,,,,,,,,,,,,,,,,,,,,,,,,,,,,,,,,,,,,,,,,,,,,,209.06280389998574,209.07350239995867,209.56692709994968,209.5669614999788,209.58020829991437,209.76687990000937,209.7669131999137,209.7874099999899,209.7874099999899,209.7874099999899,210.28651129989885,210.28651129989885,210.58127520000562,['z'],[0.7861485999310389],[None],,,,,,,,,,,,,,,,,,,,,,,,,,,,,,,,,,,,,,,,,,,,,,,,,,,129950,001,2024-07-30_18h51.27.814,final,2024.1.5,None,2024-07-30 18h51.31.293271 +0530,
images/4n.tiff,images/18n.tiff,,,,,,,,,,,3,2,20,0,,,,,,,,,210.59295759990346,,,,,,,,,,,,,,,,,,,,,,,,,,,,,,,,,,,,,,,,,,,,,,,,,,,,,,,210.58236379991286,210.59295759990346,211.08649419993162,211.08652769995388,211.09965739992913,211.2863183999434,211.28636259993073,211.30382919998374,211.30382919998374,211.30382919998374,211.8060356999049,211.8060356999049,212.02077529998496,['m'],[0.7091403999365866],[None],,,,,,,,,,,,,,,,,,,,,,,,,,,,,,,,,,,,,,,,,,,,,,,,,,,129950,001,2024-07-30_18h51.27.814,final,2024.1.5,None,2024-07-30 18h51.31.293271 +0530,
images/4n.tiff,images/4n.tiff,,,,,,,,,,,3,3,21,1,,,,,,,,,212.03243869997095,,,,,,,,,,,,,,,,,,,,,,,,,,,,,,,,,,,,,,,,,,,,,,,,,,,,,,,212.02181229996495,212.03243869997095,212.52592319995165,212.52595779998228,212.53910109994467,212.72594629996456,212.7259774999693,212.7453167999629,212.7453167999629,212.7453167999629,213.24553399998695,213.24553399998695,213.68679939990398,['z'],[0.932387699955143],[None],,,,,,,,,,,,,,,,,,,,,,,,,,,,,,,,,,,,,,,,,,,,,,,,,,,129950,001,2024-07-30_18h51.27.814,final,2024.1.5,None,2024-07-30 18h51.31.293271 +0530,
images/4n.tiff,images/4n.tiff,,,,,,,,,,,3,4,22,4,,,,,,,,,213.6987162999576,,,,,,,,,,,,,,,,,,,,,,,,,,,,,,,,,,,,,,,,,,,,,,,,,,,,,,,213.6879423999926,213.6987162999576,214.19204200000968,214.1920835999772,214.205230499967,214.3917193999514,214.3917312999256,214.4064778999891,214.4064778999891,214.4064778999891,214.91170409996994,214.91170409996994,215.43339299992658,['z'],[1.0232802999671549],[None],,,,,,,,,,,,,,,,,,,,,,,,,,,,,,,,,,,,,,,,,,,,,,,,,,,129950,001,2024-07-30_18h51.27.814,final,2024.1.5,None,2024-07-30 18h51.31.293271 +0530,
images/18n.tiff,images/4n.tiff,,,,,,,,,,,3,5,23,2,,,,,,,,,215.44478319992777,,,,,,,,,,,,,,,,,,,,,,,,,,,,,,,,,,,,,,,,,,,,,,,,,,,,,,,215.43446659995243,215.44478319992777,215.93815339996945,215.93818569998257,215.9512636999134,216.13813649991062,216.1381683999207,216.1607098999666,216.1607098999666,216.1607098999666,216.65783009992447,216.65783009992447,216.9259304999141,['m'],[0.7571876000147313],[None],,,,,,,,,,,,,,,,,,,,,,,,,,,,,,,,,,,,,,,,,,,,,,,,,,,129950,001,2024-07-30_18h51.27.814,final,2024.1.5,None,2024-07-30 18h51.31.293271 +0530,
images/4n.tiff,images/4n.tiff,,,,,,,,,,,4,0,24,4,,,,,,,,,216.93761909997556,,,,,,,,,,,,,,,,,,,,,,,,,,,,,,,,,,,,,,,,,,,,,,,,,,,,,,,216.92698519991245,216.93761909997556,217.43099229992367,217.43102929997258,217.44418180000503,217.63101959996857,217.63106109993532,217.65044459991623,217.65044459991623,217.65044459991623,218.15040839998983,218.15040839998983,218.49817159993108,['z'],[0.842523500090465],[None],,,,,,,,,,,,,,,,,,,,,,,,,,,,,,,,,,,,,,,,,,,,,,,,,,,129950,001,2024-07-30_18h51.27.814,final,2024.1.5,None,2024-07-30 18h51.31.293271 +0530,
images/4n.tiff,images/18n.tiff,,,,,,,,,,,4,1,25,0,,,,,,,,,218.51034769997932,,,,,,,,,,,,,,,,,,,,,,,,,,,,,,,,,,,,,,,,,,,,,,,,,,,,,,,218.49896279990207,218.51034769997932,219.00381319993176,219.0038993000053,219.016918099951,219.20374789997004,219.20377789996564,219.2240437999135,219.2240437999135,219.2240437999135,219.72337839996908,219.72337839996908,219.9250405000057,['m'],[0.6930656998883933],[None],,,,,,,,,,,,,,,,,,,,,,,,,,,,,,,,,,,,,,,,,,,,,,,,,,,129950,001,2024-07-30_18h51.27.814,final,2024.1.5,None,2024-07-30 18h51.31.293271 +0530,
images/18n.tiff,images/18n.tiff,,,,,,,,,,,4,2,26,3,,,,,,,,,219.9366952999262,,,,,,,,,,,,,,,,,,,,,,,,,,,,,,,,,,,,,,,,,,,,,,,,,,,,,,,219.92619409994222,219.9366952999262,220.42983769997954,220.42987009999342,220.44313809997402,220.62977739993948,220.62980569992214,220.65014019992668,220.65014019992668,220.65014019992668,221.14941849990282,221.14941849990282,223.40350869996473,['z'],[2.746926399995573],[None],,,,,,,,,,,,,,,,,,,,,,,,,,,,,,,,,,,,,,,,,,,,,,,,,,,129950,001,2024-07-30_18h51.27.814,final,2024.1.5,None,2024-07-30 18h51.31.293271 +0530,
images/18n.tiff,images/4n.tiff,,,,,,,,,,,4,3,27,2,,,,,,,,,223.41553299990483,,,,,,,,,,,,,,,,,,,,,,,,,,,,,,,,,,,,,,,,,,,,,,,,,,,,,,,223.4044991999399,223.41553299990483,223.90876389993355,223.90879539994057,223.9220500999363,224.10879009997007,224.10882540000603,224.1333746999735,224.1333746999735,224.1333746999735,224.6417695999844,224.6417695999844,224.94980519998353,['m'],[0.8078578999266028],[None],,,,,,,,,,,,,,,,,,,,,,,,,,,,,,,,,,,,,,,,,,,,,,,,,,,129950,001,2024-07-30_18h51.27.814,final,2024.1.5,None,2024-07-30 18h51.31.293271 +0530,
images/18n.tiff,images/18n.tiff,,,,,,,,,,,4,4,28,5,,,,,,,,,224.96158060000744,,,,,,,,,,,,,,,,,,,,,,,,,,,,,,,,,,,,,,,,,,,,,,,,,,,,,,,224.95083129999693,224.96158060000744,225.4549740999937,225.45503379998263,225.46798640000634,225.65488940000068,225.65492309990805,225.67354379990138,225.67354379990138,225.67354379990138,226.17468910000753,226.17468910000753,226.6689280999126,['z'],[0.9873709999956191],[None],,,,,,,,,,,,,,,,,,,,,,,,,,,,,,,,,,,,,,,,,,,,,,,,,,,129950,001,2024-07-30_18h51.27.814,final,2024.1.5,None,2024-07-30 18h51.31.293271 +0530,
images/4n.tiff,images/4n.tiff,,,,,,,,,,,4,5,29,1,,,,,,,,,226.68100599991158,,,,,,,,,,,,,,,,,,,,,,,,,,,,,,,,,,,,,,,,,,,,,,,,,,,,,,,226.66984869993757,226.68100599991158,227.17461419990286,227.1746458999114,227.18758619995788,227.37432299996726,227.37435349996667,227.39243569993414,227.39243569993414,227.39243569993414,227.89401859999634,227.89401859999634,228.29575839999598,['z'],[0.8933434999780729],[None],,,,,,,,,,,,,,,,,,,,,,,,,,,,,,,,,,,,,,,,,,,,,,,,,,,129950,001,2024-07-30_18h51.27.814,final,2024.1.5,None,2024-07-30 18h51.31.293271 +0530,
images/4n.tiff,images/4n.tiff,,,,,,,,,,,5,0,30,1,,,,,,,,,228.30702939990442,,,,,,,,,,,,,,,,,,,,,,,,,,,,,,,,,,,,,,,,,,,,,,,,,,,,,,,228.29673880001064,228.30702939990442,228.80053050001152,228.8005603000056,228.81374229991343,229.0004798999289,229.00051179993898,229.0180486999452,229.0180486999452,229.0180486999452,229.52017999999225,229.52017999999225,229.775790899992,['z'],[0.7555671000154689],[None],,,,,,,,,,,,,,,,,,,,,,,,,,,,,,,,,,,,,,,,,,,,,,,,,,,129950,001,2024-07-30_18h51.27.814,final,2024.1.5,None,2024-07-30 18h51.31.293271 +0530,
images/18n.tiff,images/4n.tiff,,,,,,,,,,,5,1,31,2,,,,,,,,,229.8260072999401,,,,,,,,,,,,,,,,,,,,,,,,,,,,,,,,,,,,,,,,,,,,,,,,,,,,,,,229.77690529997926,229.8260072999401,230.28026959998533,230.2803006999893,230.29308159998618,230.47995680000167,230.4799883000087,230.5022154999897,230.5022154999897,230.5022154999897,230.99961790000089,230.99961790000089,231.4009584999876,['m'],[0.8868316999869421],[None],,,,,,,,,,,,,,,,,,,,,,,,,,,,,,,,,,,,,,,,,,,,,,,,,,,129950,001,2024-07-30_18h51.27.814,final,2024.1.5,None,2024-07-30 18h51.31.293271 +0530,
images/18n.tiff,images/18n.tiff,,,,,,,,,,,5,2,32,5,,,,,,,,,231.41279629990458,,,,,,,,,,,,,,,,,,,,,,,,,,,,,,,,,,,,,,,,,,,,,,,,,,,,,,,231.40195430000313,231.41279629990458,231.90632770000957,231.9063593999017,231.91948419995606,232.106298699975,232.1063258999493,232.12627429992426,232.12627429992426,232.12627429992426,232.6258542999858,232.6258542999858,232.85376869991887,['z'],[0.7188596000196412],[None],,,,,,,,,,,,,,,,,,,,,,,,,,,,,,,,,,,,,,,,,,,,,,,,,,,129950,001,2024-07-30_18h51.27.814,final,2024.1.5,None,2024-07-30 18h51.31.293271 +0530,
images/4n.tiff,images/18n.tiff,,,,,,,,,,,5,3,33,0,,,,,,,,,232.86563059990294,,,,,,,,,,,,,,,,,,,,,,,,,,,,,,,,,,,,,,,,,,,,,,,,,,,,,,,232.85490879998542,232.86563059990294,233.3590947999619,233.35912749997806,233.37206620001234,233.5590205999324,233.5590534999501,233.57726829999592,233.57726829999592,233.57726829999592,234.07860919996165,234.07860919996165,234.5599900999805,['z'],[0.9725959999486804],[None],,,,,,,,,,,,,,,,,,,,,,,,,,,,,,,,,,,,,,,,,,,,,,,,,,,129950,001,2024-07-30_18h51.27.814,final,2024.1.5,None,2024-07-30 18h51.31.293271 +0530,
images/18n.tiff,images/18n.tiff,,,,,,,,,,,5,4,34,3,,,,,,,,,234.57140599994455,,,,,,,,,,,,,,,,,,,,,,,,,,,,,,,,,,,,,,,,,,,,,,,,,,,,,,,234.56121879990678,234.57140599994455,235.06528709991835,235.0653210999444,235.07831059989985,235.26514929998666,235.26518340001348,235.28396369994152,235.28396369994152,235.28396369994152,235.78481589991134,235.78481589991134,236.7191597999772,['z'],[1.4254521999973804],[None],,,,,,,,,,,,,,,,,,,,,,,,,,,,,,,,,,,,,,,,,,,,,,,,,,,129950,001,2024-07-30_18h51.27.814,final,2024.1.5,None,2024-07-30 18h51.31.293271 +0530,
images/4n.tiff,images/4n.tiff,,,,,,,,,,,5,5,35,4,,,,,,,,,236.73094259994105,,,,,,,,,,,,,,,,,,,,,,,,,,,,,,,,,,,,,,,,,,,,,,,,,,,,,,,236.72008669993374,236.73094259994105,237.22431759990286,237.2243386999471,237.2377104999032,237.4245069999015,237.424536800012,237.44260670000222,237.44260670000222,237.44260670000222,237.94401209999342,237.94401209999342,238.2125200999435,['z'],[0.7632125000236556],[None],,,,,,,,,,,,,,,,,,,,,,,,,,,,,,,,,,,,,,,,,,,,,,,,,,,129950,001,2024-07-30_18h51.27.814,final,2024.1.5,None,2024-07-30 18h51.31.293271 +0530,
images/18n.tiff,images/18n.tiff,,,,,,,,,,,6,0,36,5,,,,,,,,,238.2240644999547,,,,,,,,,,,,,,,,,,,,,,,,,,,,,,,,,,,,,,,,,,,,,,,,,,,,,,,238.21397669997532,238.2240644999547,238.71745419991203,238.71748779993504,238.7304997999454,238.91723689995706,238.9172672999557,238.93727259989828,238.93727259989828,238.93727259989828,239.43675220001023,239.43675220001023,239.87831419997383,['z'],[0.9316677000606433],[None],,,,,,,,,,,,,,,,,,,,,,,,,,,,,,,,,,,,,,,,,,,,,,,,,,,129950,001,2024-07-30_18h51.27.814,final,2024.1.5,None,2024-07-30 18h51.31.293271 +0530,
images/18n.tiff,images/18n.tiff,,,,,,,,,,,6,1,37,3,,,,,,,,,239.88987789989915,,,,,,,,,,,,,,,,,,,,,,,,,,,,,,,,,,,,,,,,,,,,,,,,,,,,,,,239.87946189998183,239.88987789989915,240.3831943999976,240.38320929999463,240.39662319992203,240.5833123999182,240.5833367999876,240.59991059999447,240.59991059999447,240.59991059999447,241.1029753999319,241.1029753999319,241.7175328999292,['z'],[1.109568899963051],[None],,,,,,,,,,,,,,,,,,,,,,,,,,,,,,,,,,,,,,,,,,,,,,,,,,,129950,001,2024-07-30_18h51.27.814,final,2024.1.5,None,2024-07-30 18h51.31.293271 +0530,
images/4n.tiff,images/4n.tiff,,,,,,,,,,,6,2,38,4,,,,,,,,,241.72935689997394,,,,,,,,,,,,,,,,,,,,,,,,,,,,,,,,,,,,,,,,,,,,,,,,,,,,,,,241.7186195999384,241.72935689997394,242.22279659996275,242.22283079999033,242.2360109000001,242.42270609992556,242.42273749993183,242.44305399991572,242.44305399991572,242.44305399991572,242.94238199992105,242.94238199992105,243.13022319995798,['z'],[0.6739015000639483],[None],,,,,,,,,,,,,,,,,,,,,,,,,,,,,,,,,,,,,,,,,,,,,,,,,,,129950,001,2024-07-30_18h51.27.814,final,2024.1.5,None,2024-07-30 18h51.31.293271 +0530,
images/4n.tiff,images/18n.tiff,,,,,,,,,,,6,3,39,0,,,,,,,,,243.14228589995764,,,,,,,,,,,,,,,,,,,,,,,,,,,,,,,,,,,,,,,,,,,,,,,,,,,,,,,243.131252399995,243.14228589995764,243.63565139996354,243.6356793999439,243.6488607999636,243.83566209999844,243.83569440001156,243.85787209996488,243.85787209996488,243.85787209996488,244.35530049994122,244.35530049994122,244.8097975999117,['m'],[0.9394571000011638],[None],,,,,,,,,,,,,,,,,,,,,,,,,,,,,,,,,,,,,,,,,,,,,,,,,,,129950,001,2024-07-30_18h51.27.814,final,2024.1.5,None,2024-07-30 18h51.31.293271 +0530,
images/4n.tiff,images/4n.tiff,,,,,,,,,,,6,4,40,1,,,,,,,,,244.82170189998578,,,,,,,,,,,,,,,,,,,,,,,,,,,,,,,,,,,,,,,,,,,,,,,,,,,,,,,244.81086849991698,244.82170189998578,245.31526529998519,245.31530089990702,245.32825869997032,245.51477159990463,245.51478649990167,245.52924519998487,245.52924519998487,245.52924519998487,246.03466469992418,246.03466469992418,246.32985779992305,['z'],[0.7882974999956787],[None],,,,,,,,,,,,,,,,,,,,,,,,,,,,,,,,,,,,,,,,,,,,,,,,,,,129950,001,2024-07-30_18h51.27.814,final,2024.1.5,None,2024-07-30 18h51.31.293271 +0530,
images/18n.tiff,images/4n.tiff,,,,,,,,,,,6,5,41,2,,,,,,,,,246.34142189996783,,,,,,,,,,,,,,,,,,,,,,,,,,,,,,,,,,,,,,,,,,,,,,,,,,,,,,,246.33163689996582,246.34142189996783,246.83479130000342,246.83482099999674,246.84761599998455,247.03450999991037,247.03454009990674,247.0520031999331,247.0520031999331,247.0520031999331,247.55418989993632,247.55418989993632,247.9143233000068,['m'],[0.8574725000653416],[None],,,,,,,,,,,,,,,,,,,,,,,,,,,,,,,,,,,,,,,,,,,,,,,,,,,129950,001,2024-07-30_18h51.27.814,final,2024.1.5,None,2024-07-30 18h51.31.293271 +0530,
images/4n.tiff,images/4n.tiff,,,,,,,,,,,7,0,42,4,,,,,,,,,247.92708930000663,,,,,,,,,,,,,,,,,,,,,,,,,,,,,,,,,,,,,,,,,,,,,,,,,,,,,,,247.91464919992723,247.92708930000663,248.42078219994437,248.4208144999575,248.43388959998265,248.6207035999978,248.62073429999873,248.64226989995223,248.64226989995223,248.64226989995223,249.14034729998093,249.14034729998093,249.34213749994524,['z'],[0.6915221000090241],[None],,,,,,,,,,,,,,,,,,,,,,,,,,,,,,,,,,,,,,,,,,,,,,,,,,,129950,001,2024-07-30_18h51.27.814,final,2024.1.5,None,2024-07-30 18h51.31.293271 +0530,
images/18n.tiff,images/18n.tiff,,,,,,,,,,,7,1,43,5,,,,,,,,,249.35367250000127,,,,,,,,,,,,,,,,,,,,,,,,,,,,,,,,,,,,,,,,,,,,,,,,,,,,,,,249.34329499991145,249.35367250000127,249.84679219999816,249.84683559997939,249.86008729995228,250.04701430001296,250.0470508999424,250.06539289990906,250.06539289990906,250.06539289990906,250.5665285999421,250.5665285999421,251.154358199914,['z'],[1.075956100015901],[None],,,,,,,,,,,,,,,,,,,,,,,,,,,,,,,,,,,,,,,,,,,,,,,,,,,129950,001,2024-07-30_18h51.27.814,final,2024.1.5,None,2024-07-30 18h51.31.293271 +0530,
images/18n.tiff,images/18n.tiff,,,,,,,,,,,7,2,44,3,,,,,,,,,251.16625399992336,,,,,,,,,,,,,,,,,,,,,,,,,,,,,,,,,,,,,,,,,,,,,,,,,,,,,,,251.15536239999346,251.16625399992336,251.6597374000121,251.65976979990955,251.6728208999848,251.85961789998692,251.85964959999546,251.87994309992064,251.87994309992064,251.87994309992064,252.37940689991228,252.37940689991228,252.54044159990735,['z'],[0.6536057000048459],[None],,,,,,,,,,,,,,,,,,,,,,,,,,,,,,,,,,,,,,,,,,,,,,,,,,,129950,001,2024-07-30_18h51.27.814,final,2024.1.5,None,2024-07-30 18h51.31.293271 +0530,
images/18n.tiff,images/4n.tiff,,,,,,,,,,,7,3,45,2,,,,,,,,,252.55250879994128,,,,,,,,,,,,,,,,,,,,,,,,,,,,,,,,,,,,,,,,,,,,,,,,,,,,,,,252.54136519995518,252.55250879994128,253.04582539992407,253.04585859994404,253.05906239990145,253.2456605999032,253.24569169990718,253.26630919997115,253.26630919997115,253.26630919997115,253.7653655000031,253.7653655000031,254.08716220001224,['m'],[0.8189674000022933],[None],,,,,,,,,,,,,,,,,,,,,,,,,,,,,,,,,,,,,,,,,,,,,,,,,,,129950,001,2024-07-30_18h51.27.814,final,2024.1.5,None,2024-07-30 18h51.31.293271 +0530,
images/4n.tiff,images/18n.tiff,,,,,,,,,,,7,4,46,0,,,,,,,,,254.09866049990524,,,,,,,,,,,,,,,,,,,,,,,,,,,,,,,,,,,,,,,,,,,,,,,,,,,,,,,254.0883169999579,254.09866049990524,254.59193379990757,254.5919590999838,254.60514030000195,254.79204520001076,254.79207959992345,254.810650600004,254.810650600004,254.810650600004,255.31163499993272,255.31163499993272,255.69956769992132,['m'],[0.8828801000490785],[None],,,,,,,,,,,,,,,,,,,,,,,,,,,,,,,,,,,,,,,,,,,,,,,,,,,129950,001,2024-07-30_18h51.27.814,final,2024.1.5,None,2024-07-30 18h51.31.293271 +0530,
images/4n.tiff,images/4n.tiff,,,,,,,,,,,7,5,47,1,,,,,,,,,255.7115344000049,,,,,,,,,,,,,,,,,,,,,,,,,,,,,,,,,,,,,,,,,,,,,,,,,,,,,,,255.70058049994987,255.7115344000049,256.2044261000119,256.2044397999998,256.2179421999026,256.4047375000082,256.4047700999072,256.42259440000635,256.42259440000635,256.42259440000635,256.9241710999049,256.9241710999049,257.3123824999202,['z'],[0.8863738999934867],[None],,,,,,,,,,,,,,,,,,,,,,,,,,,,,,,,,,,,,,,,,,,,,,,,,,,129950,001,2024-07-30_18h51.27.814,final,2024.1.5,None,2024-07-30 18h51.31.293271 +0530,
images/4n.tiff,images/4n.tiff,,,,,,,,,,,8,0,48,4,,,,,,,,,257.32410219998565,,,,,,,,,,,,,,,,,,,,,,,,,,,,,,,,,,,,,,,,,,,,,,,,,,,,,,,257.3131188999396,257.32410219998565,257.8176268999232,257.817660599947,257.8309060999891,258.01767420000397,258.0177063998999,258.0354467999423,258.0354467999423,258.0354467999423,258.53730839991476,258.53730839991476,258.818574899924,['z'],[0.7695699000032619],[None],,,,,,,,,,,,,,,,,,,,,,,,,,,,,,,,,,,,,,,,,,,,,,,,,,,129950,001,2024-07-30_18h51.27.814,final,2024.1.5,None,2024-07-30 18h51.31.293271 +0530,
images/4n.tiff,images/18n.tiff,,,,,,,,,,,8,1,49,0,,,,,,,,,258.83046089997515,,,,,,,,,,,,,,,,,,,,,,,,,,,,,,,,,,,,,,,,,,,,,,,,,,,,,,,258.81958199990913,258.83046089997515,259.32375340000726,259.32378450001124,259.3369700999465,259.5236431999365,259.52367299993057,259.54126570001245,259.54126570001245,259.54126570001245,260.04315719997976,260.04315719997976,260.39176299993414,['m'],[0.8398459000745788],[None],,,,,,,,,,,,,,,,,,,,,,,,,,,,,,,,,,,,,,,,,,,,,,,,,,,129950,001,2024-07-30_18h51.27.814,final,2024.1.5,None,2024-07-30 18h51.31.293271 +0530,
images/18n.tiff,images/18n.tiff,,,,,,,,,,,8,2,50,3,,,,,,,,,260.4032833999954,,,,,,,,,,,,,,,,,,,,,,,,,,,,,,,,,,,,,,,,,,,,,,,,,,,,,,,260.39288850000594,260.4032833999954,260.89678929990623,260.89682779996656,260.9098835999612,261.09661269991193,261.09664579993114,261.1148950000061,261.1148950000061,261.1148950000061,261.61621379991993,261.61621379991993,262.0703222999582,['z'],[0.946083000046201],[None],,,,,,,,,,,,,,,,,,,,,,,,,,,,,,,,,,,,,,,,,,,,,,,,,,,129950,001,2024-07-30_18h51.27.814,final,2024.1.5,None,2024-07-30 18h51.31.293271 +0530,
images/4n.tiff,images/4n.tiff,,,,,,,,,,,8,3,51,1,,,,,,,,,262.0826161999721,,,,,,,,,,,,,,,,,,,,,,,,,,,,,,,,,,,,,,,,,,,,,,,,,,,,,,,262.07107559998985,262.0826161999721,262.57605039991904,262.5760827999329,262.58921129989903,262.7760146999499,262.7760456999531,262.794860499911,262.794860499911,262.794860499911,263.29572039993946,263.29572039993946,263.551300299936,['z'],[0.7544365000212565],[None],,,,,,,,,,,,,,,,,,,,,,,,,,,,,,,,,,,,,,,,,,,,,,,,,,,129950,001,2024-07-30_18h51.27.814,final,2024.1.5,None,2024-07-30 18h51.31.293271 +0530,
images/18n.tiff,images/18n.tiff,,,,,,,,,,,8,4,52,5,,,,,,,,,263.56207709992304,,,,,,,,,,,,,,,,,,,,,,,,,,,,,,,,,,,,,,,,,,,,,,,,,,,,,,,263.5521149999695,263.56207709992304,264.05560199997853,264.0556379999034,264.0690029999241,264.2556469999254,264.25567989994306,264.27498149999883,264.27498149999883,264.27498149999883,264.77519750001375,264.77519750001375,265.09635809995234,['z'],[0.8101840999443084],[None],,,,,,,,,,,,,,,,,,,,,,,,,,,,,,,,,,,,,,,,,,,,,,,,,,,129950,001,2024-07-30_18h51.27.814,final,2024.1.5,None,2024-07-30 18h51.31.293271 +0530,
images/18n.tiff,images/4n.tiff,,,,,,,,,,,8,5,53,2,,,,,,,,,265.10842069995124,,,,,,,,,,,,,,,,,,,,,,,,,,,,,,,,,,,,,,,,,,,,,,,,,,,,,,,265.0972893999424,265.10842069995124,265.6016786999535,265.60171779990196,265.61491569993086,265.80156429996714,265.8015977999894,265.8198501999723,265.8198501999723,265.8198501999723,266.3212208999321,266.3212208999321,266.73652689997107,['m'],[0.9136021999875084],[None],,,,,,,,,,,,,,,,,,,,,,,,,,,,,,,,,,,,,,,,,,,,,,,,,,,129950,001,2024-07-30_18h51.27.814,final,2024.1.5,None,2024-07-30 18h51.31.293271 +0530,
images/18n.tiff,images/18n.tiff,,,,,,,,,,,9,0,54,5,,,,,,,,,266.7479177999776,,,,,,,,,,,,,,,,,,,,,,,,,,,,,,,,,,,,,,,,,,,,,,,,,,,,,,,266.73758389998693,266.7479177999776,267.24106889998075,267.24110230000224,267.2544048000127,267.4409976999741,267.4410392999416,267.4625900000101,267.4625900000101,267.4625900000101,267.9605586999096,267.9605586999096,268.3344727999065,['z'],[0.8625916000455618],[None],,,,,,,,,,,,,,,,,,,,,,,,,,,,,,,,,,,,,,,,,,,,,,,,,,,129950,001,2024-07-30_18h51.27.814,final,2024.1.5,None,2024-07-30 18h51.31.293271 +0530,
images/4n.tiff,images/4n.tiff,,,,,,,,,,,9,1,55,4,,,,,,,,,268.34726389998104,,,,,,,,,,,,,,,,,,,,,,,,,,,,,,,,,,,,,,,,,,,,,,,,,,,,,,,268.3349135000026,268.34726389998104,268.84049889992457,268.84053419996053,268.8539499999024,269.0406657999847,269.0407024999149,269.0588870999636,269.0588870999636,269.0588870999636,269.56031229998916,269.56031229998916,269.89506999996956,['z'],[0.8269631000002846],[None],,,,,,,,,,,,,,,,,,,,,,,,,,,,,,,,,,,,,,,,,,,,,,,,,,,129950,001,2024-07-30_18h51.27.814,final,2024.1.5,None,2024-07-30 18h51.31.293271 +0530,
images/4n.tiff,images/4n.tiff,,,,,,,,,,,9,2,56,1,,,,,,,,,269.9067851,,,,,,,,,,,,,,,,,,,,,,,,,,,,,,,,,,,,,,,,,,,,,,,,,,,,,,,269.8961252999725,269.9067851,270.4000228999648,270.4000531999627,270.4133785999147,270.5997616999084,270.5997790999245,270.61751749995165,270.61751749995165,270.61751749995165,271.11965479992796,271.11965479992796,272.45425059995614,['z'],[1.8282149999868125],[None],,,,,,,,,,,,,,,,,,,,,,,,,,,,,,,,,,,,,,,,,,,,,,,,,,,129950,001,2024-07-30_18h51.27.814,final,2024.1.5,None,2024-07-30 18h51.31.293271 +0530,
images/18n.tiff,images/4n.tiff,,,,,,,,,,,9,3,57,2,,,,,,,,,272.4659953999799,,,,,,,,,,,,,,,,,,,,,,,,,,,,,,,,,,,,,,,,,,,,,,,,,,,,,,,272.45528499991633,272.4659953999799,272.9592321999371,272.95926859998144,272.97230269992724,273.15943869994953,273.15948419994675,273.1782760999631,273.1782760999631,273.1782760999631,273.67882839997765,273.67882839997765,274.1067247999599,['m'],[0.9147802999941632],[None],,,,,,,,,,,,,,,,,,,,,,,,,,,,,,,,,,,,,,,,,,,,,,,,,,,129950,001,2024-07-30_18h51.27.814,final,2024.1.5,None,2024-07-30 18h51.31.293271 +0530,
images/18n.tiff,images/18n.tiff,,,,,,,,,,,9,4,58,3,,,,,,,,,274.1187147999881,,,,,,,,,,,,,,,,,,,,,,,,,,,,,,,,,,,,,,,,,,,,,,,,,,,,,,,274.10765559994616,274.1187147999881,274.61231220001355,274.6123476999346,274.6253655999899,274.81203739997,274.81206779996864,274.8303479999304,274.8303479999304,274.8303479999304,275.33177319995593,275.33177319995593,275.56017049995717,['m'],[0.7188659000676125],[None],,,,,,,,,,,,,,,,,,,,,,,,,,,,,,,,,,,,,,,,,,,,,,,,,,,129950,001,2024-07-30_18h51.27.814,final,2024.1.5,None,2024-07-30 18h51.31.293271 +0530,
images/4n.tiff,images/18n.tiff,,,,,,,,,,,9,5,59,0,,,,,,,,,275.57174419995863,,,,,,,,,,,,,,,,,,,,,,,,,,,,,,,,,,,,,,,,,,,,,,,,,,,,,,,275.5612652999116,275.57174419995863,276.0650189999724,276.0650527999969,276.0781096999999,276.2649057999952,276.2649362999946,276.2831357999239,276.2831357999239,276.2831357999239,276.784573599929,276.784573599929,277.13230789999943,['m'],[0.8420402000192553],[None],,,,,,,,,,,,,,,,,,,,,,,,,,,,,,,,,,,,,,,,,,,,,,,,,,,129950,001,2024-07-30_18h51.27.814,final,2024.1.5,None,2024-07-30 18h51.31.293271 +0530,
,,,,,,,,,,,,,,,,,,,,,,,,,,,,,,,,,,,,,,,,,,,,,,,,,,,,,,,,,,,,,,,,,,,,,,,,,,,,,,,,,,,,,,,,,,,,,,,277.13299740001094,277.14443179999944,277.14443179999944,278.1854269999312,space,1.0288314999779686,None,,,,,,,,,,,,,,,,,,,,,,,,,,,,,,,,,,,,,,,,,,,,129950,001,2024-07-30_18h51.27.814,final,2024.1.5,None,2024-07-30 18h51.31.293271 +0530,
images/10n.tiff,images/10n.tiff,,,,,,,,,,,,,,,0,0,0,11,,,,,278.1989343999885,,,,,,,,,,,,,,,,,,,,,,,,,,,,,,,,,,,,,,,,,,,,,,,,,,,,,,,,,,,,,,,,,,,,,,,,,,,,,,278.19694019993767,278.1989343999885,278.69085809995886,278.6908939999994,278.7039543999126,278.89072519994806,278.8907581999665,278.91359279991593,278.91359279991593,278.91359279991593,279.4103698999388,279.4103698999388,279.6650354999583,['z'],[0.7473794999532402],[None],,,,,,,,,,,,,,,,,,,,,,,,,,,,129950,001,2024-07-30_18h51.27.814,final,2024.1.5,None,2024-07-30 18h51.31.293271 +0530,
images/5n.tiff,images/5n.tiff,,,,,,,,,,,,,,,0,1,1,2,,,,,279.6767891999334,,,,,,,,,,,,,,,,,,,,,,,,,,,,,,,,,,,,,,,,,,,,,,,,,,,,,,,,,,,,,,,,,,,,,,,,,,,,,,279.66634379990865,279.6767891999334,280.17033829994034,280.1703712999588,280.18347169994377,280.37023699993733,280.3702690999489,280.38799439999275,280.38799439999275,280.38799439999275,280.889989499934,280.889989499934,281.10452789999545,['z'],[0.705235300003551],[None],,,,,,,,,,,,,,,,,,,,,,,,,,,,129950,001,2024-07-30_18h51.27.814,final,2024.1.5,None,2024-07-30 18h51.31.293271 +0530,
images/10n.tiff,images/10n.tiff,,,,,,,,,,,,,,,0,2,2,6,,,,,281.1163319000043,,,,,,,,,,,,,,,,,,,,,,,,,,,,,,,,,,,,,,,,,,,,,,,,,,,,,,,,,,,,,,,,,,,,,,,,,,,,,,281.10544789989945,281.1163319000043,281.61002169991843,281.610057999962,281.6230985999573,281.8098823999753,281.80993310001213,281.8291013999842,281.8291013999842,281.8291013999842,282.32943629997317,282.32943629997317,282.3440617999295,['z'],[0.5044744999613613],[None],,,,,,,,,,,,,,,,,,,,,,,,,,,,129950,001,2024-07-30_18h51.27.814,final,2024.1.5,None,2024-07-30 18h51.31.293271 +0530,
images/18n.tiff,images/18n.tiff,,,,,,,,,,,,,,,0,3,3,4,,,,,282.35604300000705,,,,,,,,,,,,,,,,,,,,,,,,,,,,,,,,,,,,,,,,,,,,,,,,,,,,,,,,,,,,,,,,,,,,,,,,,,,,,,282.3450957000023,282.35604300000705,282.84951709990855,282.84955359995365,282.8625716000097,283.04934539995156,283.0493794999784,283.0677217999473,283.0677217999473,283.0677217999473,283.5689955999842,283.5689955999842,283.984158199979,['z'],[0.9134577000513673],[None],,,,,,,,,,,,,,,,,,,,,,,,,,,,129950,001,2024-07-30_18h51.27.814,final,2024.1.5,None,2024-07-30 18h51.31.293271 +0530,
images/4n.tiff,images/4n.tiff,,,,,,,,,,,,,,,0,4,4,0,,,,,283.99539629998617,,,,,,,,,,,,,,,,,,,,,,,,,,,,,,,,,,,,,,,,,,,,,,,,,,,,,,,,,,,,,,,,,,,,,,,,,,,,,,283.9851395000005,283.99539629998617,284.4888821999775,284.4889170000097,284.5020844999235,284.6890223999508,284.6890571999829,284.71011250000447,284.71011250000447,284.71011250000447,285.2084683999419,285.2084683999419,285.4231838999549,['m'],[0.7029401999898255],[None],,,,,,,,,,,,,,,,,,,,,,,,,,,,129950,001,2024-07-30_18h51.27.814,final,2024.1.5,None,2024-07-30 18h51.31.293271 +0530,
images/5n.tiff,images/5n.tiff,,,,,,,,,,,,,,,0,5,5,10,,,,,285.4349176000105,,,,,,,,,,,,,,,,,,,,,,,,,,,,,,,,,,,,,,,,,,,,,,,,,,,,,,,,,,,,,,,,,,,,,,,,,,,,,,285.42410659999587,285.4349176000105,285.92839109990746,285.9284243999282,285.9416340999305,286.12850280001294,286.1285362999188,286.14798050001264,286.14798050001264,286.14798050001264,286.64816539990716,286.64816539990716,286.862596699968,['z'],[0.7053479000460356],[None],,,,,,,,,,,,,,,,,,,,,,,,,,,,129950,001,2024-07-30_18h51.27.814,final,2024.1.5,None,2024-07-30 18h51.31.293271 +0530,
images/4n.tiff,images/18n.tiff,,,,,,,,,,,,,,,0,6,6,1,,,,,286.87445030000526,,,,,,,,,,,,,,,,,,,,,,,,,,,,,,,,,,,,,,,,,,,,,,,,,,,,,,,,,,,,,,,,,,,,,,,,,,,,,,286.86347439989913,286.87445030000526,287.3679268999258,287.3679628999671,287.38112909998745,287.5680268999422,287.5680604999652,287.58711299998686,287.58711299998686,287.58711299998686,288.08760739990976,288.08760739990976,288.28956479998305,['m'],[0.6986444999929518],[None],,,,,,,,,,,,,,,,,,,,,,,,,,,,129950,001,2024-07-30_18h51.27.814,final,2024.1.5,None,2024-07-30 18h51.31.293271 +0530,
images/18n.tiff,images/18n.tiff,,,,,,,,,,,,,,,0,7,7,9,,,,,288.30073369992897,,,,,,,,,,,,,,,,,,,,,,,,,,,,,,,,,,,,,,,,,,,,,,,,,,,,,,,,,,,,,,,,,,,,,,,,,,,,,,288.2903809999116,288.30073369992897,288.79397809994407,288.79401229997166,288.8072967999615,288.993994899909,288.99402969994117,289.0123748999322,289.0123748999322,289.0123748999322,289.51358479994815,289.51358479994815,290.0091626999201,['z'],[0.9935709000565112],[None],,,,,,,,,,,,,,,,,,,,,,,,,,,,129950,001,2024-07-30_18h51.27.814,final,2024.1.5,None,2024-07-30 18h51.31.293271 +0530,
images/10n.tiff,images/5n.tiff,,,,,,,,,,,,,,,0,8,8,7,,,,,290.020190399955,,,,,,,,,,,,,,,,,,,,,,,,,,,,,,,,,,,,,,,,,,,,,,,,,,,,,,,,,,,,,,,,,,,,,,,,,,,,,,290.01021019998007,290.020190399955,290.5134050999768,290.5134390000021,290.5267160999356,290.7135777999647,290.7136137000052,290.73256189993117,290.73256189993117,290.73256189993117,291.2329998000059,291.2329998000059,291.781002099975,['m'],[1.0410638999892399],[None],,,,,,,,,,,,,,,,,,,,,,,,,,,,129950,001,2024-07-30_18h51.27.814,final,2024.1.5,None,2024-07-30 18h51.31.293271 +0530,
images/18n.tiff,images/4n.tiff,,,,,,,,,,,,,,,0,9,9,5,,,,,291.79283349995967,,,,,,,,,,,,,,,,,,,,,,,,,,,,,,,,,,,,,,,,,,,,,,,,,,,,,,,,,,,,,,,,,,,,,,,,,,,,,,291.78209260001313,291.79283349995967,292.2863176999381,292.2863532999763,292.29948799998965,292.48624719993677,292.4862791999476,292.5061697999481,292.5061697999481,292.5061697999481,293.0059700999409,293.0059700999409,294.08712229994126,['m'],[1.5708460999885574],[None],,,,,,,,,,,,,,,,,,,,,,,,,,,,129950,001,2024-07-30_18h51.27.814,final,2024.1.5,None,2024-07-30 18h51.31.293271 +0530,
images/5n.tiff,images/10n.tiff,,,,,,,,,,,,,,,0,10,10,3,,,,,294.09891559998505,,,,,,,,,,,,,,,,,,,,,,,,,,,,,,,,,,,,,,,,,,,,,,,,,,,,,,,,,,,,,,,,,,,,,,,,,,,,,,294.08858929993585,294.09891559998505,294.59220039995853,294.59223529999144,294.60555039998144,294.79214279993903,294.79217869997956,294.8119677999057,294.8119677999057,294.8119677999057,295.31169729994144,295.31169729994144,296.67245670000557,['m'],[1.8570772000821307],[None],,,,,,,,,,,,,,,,,,,,,,,,,,,,129950,001,2024-07-30_18h51.27.814,final,2024.1.5,None,2024-07-30 18h51.31.293271 +0530,
images/4n.tiff,images/4n.tiff,,,,,,,,,,,,,,,0,11,11,8,,,,,296.6846989999758,,,,,,,,,,,,,,,,,,,,,,,,,,,,,,,,,,,,,,,,,,,,,,,,,,,,,,,,,,,,,,,,,,,,,,,,,,,,,,296.6732267999323,296.6846989999758,297.17804499994963,297.17807829997037,297.1910848999396,297.3780456999084,297.37808019993827,297.39654009998776,297.39654009998776,297.39654009998776,297.89774349995423,297.89774349995423,298.23256199993193,['z'],[0.8324489999795333],[None],,,,,,,,,,,,,,,,,,,,,,,,,,,,129950,001,2024-07-30_18h51.27.814,final,2024.1.5,None,2024-07-30 18h51.31.293271 +0530,
images/5n.tiff,images/10n.tiff,,,,,,,,,,,,,,,1,0,12,3,,,,,298.2441879999824,,,,,,,,,,,,,,,,,,,,,,,,,,,,,,,,,,,,,,,,,,,,,,,,,,,,,,,,,,,,,,,,,,,,,,,,,,,,,,298.23350089997984,298.2441879999824,298.7376934000058,298.7377295999322,298.7507108999416,298.93746599997394,298.9376047999831,298.95570309995674,298.95570309995674,298.95570309995674,299.4571617000038,299.4571617000038,300.3650336000137,['m'],[1.4013665999518707],[None],,,,,,,,,,,,,,,,,,,,,,,,,,,,129950,001,2024-07-30_18h51.27.814,final,2024.1.5,None,2024-07-30 18h51.31.293271 +0530,
images/10n.tiff,images/5n.tiff,,,,,,,,,,,,,,,1,1,13,7,,,,,300.37681769998744,,,,,,,,,,,,,,,,,,,,,,,,,,,,,,,,,,,,,,,,,,,,,,,,,,,,,,,,,,,,,,,,,,,,,,,,,,,,,,300.36575219989754,300.37681769998744,300.8700383999385,300.8700720999623,300.88333439989947,301.0700390000129,301.07007099990733,301.08882089995313,301.08882089995313,301.08882089995313,301.58964099991135,301.58964099991135,301.9919610999059,['m'],[0.9002473000437021],[None],,,,,,,,,,,,,,,,,,,,,,,,,,,,129950,001,2024-07-30_18h51.27.814,final,2024.1.5,None,2024-07-30 18h51.31.293271 +0530,
images/4n.tiff,images/4n.tiff,,,,,,,,,,,,,,,1,2,14,8,,,,,302.00289399991743,,,,,,,,,,,,,,,,,,,,,,,,,,,,,,,,,,,,,,,,,,,,,,,,,,,,,,,,,,,,,,,,,,,,,,,,,,,,,,301.9928526999429,302.00289399991743,302.49636839993764,302.49640309996903,302.5093426000094,302.6962976999348,302.6963292999426,302.71417269995436,302.71417269995436,302.71417269995436,303.21595579991117,303.21595579991117,303.4304225000087,['z'],[0.7073929000180215],[None],,,,,,,,,,,,,,,,,,,,,,,,,,,,129950,001,2024-07-30_18h51.27.814,final,2024.1.5,None,2024-07-30 18h51.31.293271 +0530,
images/10n.tiff,images/10n.tiff,,,,,,,,,,,,,,,1,3,15,6,,,,,303.44249069993384,,,,,,,,,,,,,,,,,,,,,,,,,,,,,,,,,,,,,,,,,,,,,,,,,,,,,,,,,,,,,,,,,,,,,,,,,,,,,,303.43153179995716,303.44249069993384,303.9358221999137,303.9358559999382,303.94898749992717,304.1359898999799,304.13602239999454,304.1550362999551,304.1550362999551,304.1550362999551,304.6555331000127,304.6555331000127,304.897085399949,['z'],[0.7381266000447795],[None],,,,,,,,,,,,,,,,,,,,,,,,,,,,129950,001,2024-07-30_18h51.27.814,final,2024.1.5,None,2024-07-30 18h51.31.293271 +0530,
images/18n.tiff,images/18n.tiff,,,,,,,,,,,,,,,1,4,16,9,,,,,304.90859289991204,,,,,,,,,,,,,,,,,,,,,,,,,,,,,,,,,,,,,,,,,,,,,,,,,,,,,,,,,,,,,,,,,,,,,,,,,,,,,,304.89804589992855,304.90859289991204,305.4019649999682,305.40199929999653,305.4152383999899,305.6019238999579,305.6019552999642,305.62052409991156,305.62052409991156,305.62052409991156,306.12175599997863,306.12175599997863,306.36304639989976,['z'],[0.7287236000411212],[None],,,,,,,,,,,,,,,,,,,,,,,,,,,,129950,001,2024-07-30_18h51.27.814,final,2024.1.5,None,2024-07-30 18h51.31.293271 +0530,
images/10n.tiff,images/10n.tiff,,,,,,,,,,,,,,,1,5,17,11,,,,,306.3748500999063,,,,,,,,,,,,,,,,,,,,,,,,,,,,,,,,,,,,,,,,,,,,,,,,,,,,,,,,,,,,,,,,,,,,,,,,,,,,,,306.3639903999865,306.3748500999063,306.8682494999375,306.86828489997424,306.88153059990145,307.0680139999604,307.06804749998264,307.0858481999021,307.0858481999021,307.0858481999021,307.5876522999024,307.5876522999024,307.6962489999132,['z'],[0.6076523000374436],[None],,,,,,,,,,,,,,,,,,,,,,,,,,,,129950,001,2024-07-30_18h51.27.814,final,2024.1.5,None,2024-07-30 18h51.31.293271 +0530,
images/18n.tiff,images/18n.tiff,,,,,,,,,,,,,,,1,6,18,4,,,,,307.7076187999919,,,,,,,,,,,,,,,,,,,,,,,,,,,,,,,,,,,,,,,,,,,,,,,,,,,,,,,,,,,,,,,,,,,,,,,,,,,,,,307.69734439998865,307.7076187999919,308.20123459992465,308.2012675999431,308.21431579999626,308.40114370000083,308.40117749990895,308.4209874999942,308.4209874999942,308.4209874999942,308.92079050000757,308.92079050000757,309.04205689998344,['z'],[0.6165257999673486],[None],,,,,,,,,,,,,,,,,,,,,,,,,,,,129950,001,2024-07-30_18h51.27.814,final,2024.1.5,None,2024-07-30 18h51.31.293271 +0530,
images/5n.tiff,images/5n.tiff,,,,,,,,,,,,,,,1,7,19,10,,,,,309.0540947999107,,,,,,,,,,,,,,,,,,,,,,,,,,,,,,,,,,,,,,,,,,,,,,,,,,,,,,,,,,,,,,,,,,,,,,,,,,,,,,309.0431112999795,309.0540947999107,309.54749579995405,309.54754499997944,309.56057829991914,309.7472587999655,309.74729249998927,309.76747909991536,309.76747909991536,309.76747909991536,310.26692449999973,310.26692449999973,310.38844020001125,['z'],[0.6140665999846533],[None],,,,,,,,,,,,,,,,,,,,,,,,,,,,129950,001,2024-07-30_18h51.27.814,final,2024.1.5,None,2024-07-30 18h51.31.293271 +0530,
images/4n.tiff,images/4n.tiff,,,,,,,,,,,,,,,1,8,20,0,,,,,310.4001892999513,,,,,,,,,,,,,,,,,,,,,,,,,,,,,,,,,,,,,,,,,,,,,,,,,,,,,,,,,,,,,,,,,,,,,,,,,,,,,,310.38925959996413,310.4001892999513,310.89375990000553,310.8937969999388,310.9067992999917,311.0935452999547,311.09357569995336,311.1116620999528,311.1116620999528,311.1116620999528,311.61331529996824,311.61331529996824,311.8412290000124,['z'],[0.718189200037159],[None],,,,,,,,,,,,,,,,,,,,,,,,,,,,129950,001,2024-07-30_18h51.27.814,final,2024.1.5,None,2024-07-30 18h51.31.293271 +0530,
images/4n.tiff,images/18n.tiff,,,,,,,,,,,,,,,1,9,21,1,,,,,311.8531344999792,,,,,,,,,,,,,,,,,,,,,,,,,,,,,,,,,,,,,,,,,,,,,,,,,,,,,,,,,,,,,,,,,,,,,,,,,,,,,,311.84233849996235,311.8531344999792,312.3464142999146,312.34644529991783,312.35966849990655,312.54640499991365,312.5464381999336,312.56495199992787,312.56495199992787,312.56495199992787,313.0659919999307,313.0659919999307,313.29386480001267,['m'],[0.7203239999944344],[None],,,,,,,,,,,,,,,,,,,,,,,,,,,,129950,001,2024-07-30_18h51.27.814,final,2024.1.5,None,2024-07-30 18h51.31.293271 +0530,
images/18n.tiff,images/4n.tiff,,,,,,,,,,,,,,,1,10,22,5,,,,,313.3058842999162,,,,,,,,,,,,,,,,,,,,,,,,,,,,,,,,,,,,,,,,,,,,,,,,,,,,,,,,,,,,,,,,,,,,,,,,,,,,,,313.2946098999819,313.3058842999162,313.7994707999751,313.7995063000126,313.8126776999561,313.9992917999625,313.9993244999787,314.0195469999453,314.0195469999453,314.0195469999453,314.5189019999234,314.5189019999234,314.7068708000006,['m'],[0.6741192999761552],[None],,,,,,,,,,,,,,,,,,,,,,,,,,,,129950,001,2024-07-30_18h51.27.814,final,2024.1.5,None,2024-07-30 18h51.31.293271 +0530,
images/5n.tiff,images/5n.tiff,,,,,,,,,,,,,,,1,11,23,2,,,,,314.7188467999222,,,,,,,,,,,,,,,,,,,,,,,,,,,,,,,,,,,,,,,,,,,,,,,,,,,,,,,,,,,,,,,,,,,,,,,,,,,,,,314.7079137999099,314.7188467999222,315.2122526000021,315.2122869999148,315.22527860000264,315.41213359998073,315.4121683000121,315.42980559996795,315.42980559996795,315.42980559996795,315.93191469996236,315.93191469996236,316.2402621000074,['z'],[0.8075829999288544],[None],,,,,,,,,,,,,,,,,,,,,,,,,,,,129950,001,2024-07-30_18h51.27.814,final,2024.1.5,None,2024-07-30 18h51.31.293271 +0530,
images/5n.tiff,images/5n.tiff,,,,,,,,,,,,,,,2,0,24,2,,,,,316.2516966999974,,,,,,,,,,,,,,,,,,,,,,,,,,,,,,,,,,,,,,,,,,,,,,,,,,,,,,,,,,,,,,,,,,,,,,,,,,,,,,316.2411227999255,316.2516966999974,316.7449462999357,316.7449793999549,316.75819449999835,316.94502230000217,316.9450567999156,316.96675139991567,316.96675139991567,316.96675139991567,317.46465699991677,317.46465699991677,317.5994005999528,['z'],[0.6227410000283271],[None],,,,,,,,,,,,,,,,,,,,,,,,,,,,129950,001,2024-07-30_18h51.27.814,final,2024.1.5,None,2024-07-30 18h51.31.293271 +0530,
