face_images_1,face_images_2,pos_1,pos_2,trials_30.thisRepN,trials_30.thisTrialN,trials_30.thisN,trials_30.thisIndex,main_1.thisRepN,main_1.thisTrialN,main_1.thisN,main_1.thisIndex,main_2.thisRepN,main_2.thisTrialN,main_2.thisN,main_2.thisIndex,main_3.thisRepN,main_3.thisTrialN,main_3.thisN,main_3.thisIndex,main_4.thisRepN,main_4.thisTrialN,main_4.thisN,main_4.thisIndex,thisRow.t,notes,Instruction.started,text_Welcome.started,key_space.started,Instruction.stopped,key_space.keys,key_space.rt,key_space.duration,gap.started,text_gap.started,gap.stopped,plus.started,plus__.started,plus.stopped,trial_30.started,image_1.started,image_2.started,trial_resp.started,trial_30.stopped,trial_resp.keys,trial_resp.rt,trial_resp.duration,image_1.stopped,image_2.stopped,Instruction_1.started,text_instruct.started,space_resp.started,Instruction_1.stopped,space_resp.keys,space_resp.rt,space_resp.duration,gap_1.started,gap__1.started,gap_1.stopped,plus_1.started,plus__1.started,plus_1.stopped,Block_1.started,image_1_set_1.started,image_2_set_1.started,resp_1.started,Block_1.stopped,resp_1.keys,resp_1.rt,resp_1.duration,image_1_set_1.stopped,image_2_set_1.stopped,Instuct_2.started,text_block2.started,space_resp_2.started,Instuct_2.stopped,space_resp_2.keys,space_resp_2.rt,space_resp_2.duration,gap_2.started,gap__2.started,gap_2.stopped,plus_2.started,plus__2.started,plus_2.stopped,Block_2.started,image_1_set_2.started,image_2_set_2.started,resp_2.started,image_1_set_2.stopped,image_2_set_2.stopped,Block_2.stopped,resp_2.keys,resp_2.rt,resp_2.duration,Instruct_3.started,text_block3.started,space_resp_3.started,Instruct_3.stopped,space_resp_3.keys,space_resp_3.rt,space_resp_3.duration,gap_3.started,gap__3.started,gap_3.stopped,plus_3.started,plus__3.started,plus_3.stopped,Block_3.started,image_1_set_3.started,image_2_set_3.started,resp_3.started,image_1_set_3.stopped,image_2_set_3.stopped,Block_3.stopped,resp_3.keys,resp_3.rt,resp_3.duration,Instruct_4.started,text_block4.started,space_resp_4.started,Instruct_4.stopped,space_resp_4.keys,space_resp_4.rt,space_resp_4.duration,gap_4.started,gap__4.started,gap_4.stopped,plus_4.started,plus___4.started,plus_4.stopped,Block_4.started,image_1_set_4.started,image_2_set_4.started,resp_4.started,image_1_set_4.stopped,image_2_set_4.stopped,Block_4.stopped,resp_4.keys,resp_4.rt,resp_4.duration,end.started,text_3.started,text_3.stopped,end.stopped,participant,session,date,expName,psychopyVersion,frameRate,expStart,
,,,,,,,,,,,,,,,,,,,,,,,,,,0.005554400006076321,0.007638299997779541,0.007638299997779541,8.966710000007879,['space'],[8.949124999999185],[None],,,,,,,,,,,,,,,,,,,,,,,,,,,,,,,,,,,,,,,,,,,,,,,,,,,,,,,,,,,,,,,,,,,,,,,,,,,,,,,,,,,,,,,,,,,,,,,,,,,,,,,,,,,,,,,,,340808,001,2024-08-01_15h36.14.492,final,2024.1.5,None,2024-08-01 15h36.17.654286 +0530,
images/5n.tiff,images/5n.tiff,"(0.3, 0.2)","(-0.3, 0.2)",0,0,0,22,,,,,,,,,,,,,,,,,8.975723199997446,,,,,,,,,8.973647500009974,8.975723199997446,9.469072699997923,9.469104000003426,9.482383199996548,9.66891239999677,9.66894040000625,9.698624900003779,9.698624900003779,9.698624900003779,10.07014490000438,['z'],[0.36133409998728894],[None],,,,,,,,,,,,,,,,,,,,,,,,,,,,,,,,,,,,,,,,,,,,,,,,,,,,,,,,,,,,,,,,,,,,,,,,,,,,,,,,,,,,,,,,,,,,,,,,,,,340808,001,2024-08-01_15h36.14.492,final,2024.1.5,None,2024-08-01 15h36.17.654286 +0530,
images/5n.tiff,images/18n.tiff,"(0.3, 0.2)","(-0.3, 0.2)",0,1,1,6,,,,,,,,,,,,,,,,,10.082176700001583,,,,,,,,,10.071278500006883,10.082176700001583,10.575711199999205,10.575742500004708,10.588675000006333,10.77553070000431,10.77556180000829,10.798586600009003,10.798586600009003,10.798586600009003,11.336648600001354,['m'],[0.5334058000007644],[None],11.295223100009025,11.295223100009025,,,,,,,,,,,,,,,,,,,,,,,,,,,,,,,,,,,,,,,,,,,,,,,,,,,,,,,,,,,,,,,,,,,,,,,,,,,,,,,,,,,,,,,,,,,,,,,,,340808,001,2024-08-01_15h36.14.492,final,2024.1.5,None,2024-08-01 15h36.17.654286 +0530,
images/5n.tiff,images/4n.tiff,"(0.3, 0.2)","(-0.3, 0.2)",0,2,2,26,,,,,,,,,,,,,,,,,11.348271099996055,,,,,,,,,11.337552299999516,11.348271099996055,11.842048300008173,11.84208000000217,11.85519970000314,12.04186280000431,12.041892900000676,12.0619255000056,12.0619255000056,12.0619255000056,12.456400299997767,['z'],[0.39014609999139793],[None],,,,,,,,,,,,,,,,,,,,,,,,,,,,,,,,,,,,,,,,,,,,,,,,,,,,,,,,,,,,,,,,,,,,,,,,,,,,,,,,,,,,,,,,,,,,,,,,,,,340808,001,2024-08-01_15h36.14.492,final,2024.1.5,None,2024-08-01 15h36.17.654286 +0530,
images/4n.tiff,images/10n.tiff,"(0.3, 0.2)","(-0.3, 0.2)",0,3,3,17,,,,,,,,,,,,,,,,,12.467924700002186,,,,,,,,,12.457257100002607,12.467924700002186,12.961435200006235,12.961468200010131,12.974577200002386,13.161783700008527,13.161831999997958,13.184933600001386,13.184933600001386,13.184933600001386,13.496492300007958,['m'],[0.307141600002069],[None],,,,,,,,,,,,,,,,,,,,,,,,,,,,,,,,,,,,,,,,,,,,,,,,,,,,,,,,,,,,,,,,,,,,,,,,,,,,,,,,,,,,,,,,,,,,,,,,,,,340808,001,2024-08-01_15h36.14.492,final,2024.1.5,None,2024-08-01 15h36.17.654286 +0530,
images/4n.tiff,images/5n.tiff,"(0.3, 0.2)","(-0.3, 0.2)",0,4,4,0,,,,,,,,,,,,,,,,,13.50757750000048,,,,,,,,,13.497295100009069,13.50757750000048,14.001119900000049,14.001151200005552,14.014314400003059,14.20105250000779,14.201088600006187,14.222580700006802,14.222580700006802,14.222580700006802,14.66880339999625,['z'],[0.4379470999992918],[None],,,,,,,,,,,,,,,,,,,,,,,,,,,,,,,,,,,,,,,,,,,,,,,,,,,,,,,,,,,,,,,,,,,,,,,,,,,,,,,,,,,,,,,,,,,,,,,,,,,340808,001,2024-08-01_15h36.14.492,final,2024.1.5,None,2024-08-01 15h36.17.654286 +0530,
images/10n.tiff,images/18n.tiff,"(0.3, 0.2)","(-0.3, 0.2)",0,5,5,10,,,,,,,,,,,,,,,,,14.68070140000782,,,,,,,,,14.669652500000666,14.68070140000782,15.174142100004246,15.17417430000205,15.187049700005446,15.374038299996755,15.37406909999845,15.39504719999968,15.39504719999968,15.39504719999968,15.788880499996594,['m'],[0.38466919999336824],[None],,,,,,,,,,,,,,,,,,,,,,,,,,,,,,,,,,,,,,,,,,,,,,,,,,,,,,,,,,,,,,,,,,,,,,,,,,,,,,,,,,,,,,,,,,,,,,,,,,,340808,001,2024-08-01_15h36.14.492,final,2024.1.5,None,2024-08-01 15h36.17.654286 +0530,
images/10n.tiff,images/5n.tiff,"(0.3, 0.2)","(-0.3, 0.2)",0,6,6,27,,,,,,,,,,,,,,,,,15.80050559999654,,,,,,,,,15.789827800006606,15.80050559999654,16.293646000005538,16.293674900007318,16.306745599998976,16.493653900004574,16.493683499997132,16.51095140000689,16.51095140000689,16.51095140000689,16.89538880001055,['m'],[0.3809956999903079],[None],,,,,,,,,,,,,,,,,,,,,,,,,,,,,,,,,,,,,,,,,,,,,,,,,,,,,,,,,,,,,,,,,,,,,,,,,,,,,,,,,,,,,,,,,,,,,,,,,,,340808,001,2024-08-01_15h36.14.492,final,2024.1.5,None,2024-08-01 15h36.17.654286 +0530,
images/18n.tiff,images/5n.tiff,"(0.3, 0.2)","(-0.3, 0.2)",0,7,7,13,,,,,,,,,,,,,,,,,16.906445800006622,,,,,,,,,16.896228900004644,16.906445800006622,17.399893599998904,17.399923700009822,17.413092600007076,17.6001918999973,17.600223600005847,17.618455500007258,17.618455500007258,17.618455500007258,18.04103120000218,['m'],[0.41812519999803044],[None],,,,,,,,,,,,,,,,,,,,,,,,,,,,,,,,,,,,,,,,,,,,,,,,,,,,,,,,,,,,,,,,,,,,,,,,,,,,,,,,,,,,,,,,,,,,,,,,,,,340808,001,2024-08-01_15h36.14.492,final,2024.1.5,None,2024-08-01 15h36.17.654286 +0530,
images/10n.tiff,images/5n.tiff,"(0.3, 0.2)","(-0.3, 0.2)",0,8,8,9,,,,,,,,,,,,,,,,,18.052800700010266,,,,,,,,,18.04163089999929,18.052800700010266,18.5460996000038,18.546129800000926,18.559405599997262,18.745910400000867,18.74592400000256,18.763175600004615,18.763175600004615,18.763175600004615,19.20123930000409,['m'],[0.4327205000008689],[None],,,,,,,,,,,,,,,,,,,,,,,,,,,,,,,,,,,,,,,,,,,,,,,,,,,,,,,,,,,,,,,,,,,,,,,,,,,,,,,,,,,,,,,,,,,,,,,,,,,340808,001,2024-08-01_15h36.14.492,final,2024.1.5,None,2024-08-01 15h36.17.654286 +0530,
images/4n.tiff,images/10n.tiff,"(0.3, 0.2)","(-0.3, 0.2)",0,9,9,1,,,,,,,,,,,,,,,,,19.21246070000052,,,,,,,,,19.201990700006718,19.21246070000052,19.705867700002273,19.705898300002445,19.719128299999284,19.905605200008722,19.905633700007456,19.927737100006198,19.927737100006198,19.927737100006198,20.33473159999994,['m'],[0.4047028999921167],[None],,,,,,,,,,,,,,,,,,,,,,,,,,,,,,,,,,,,,,,,,,,,,,,,,,,,,,,,,,,,,,,,,,,,,,,,,,,,,,,,,,,,,,,,,,,,,,,,,,,340808,001,2024-08-01_15h36.14.492,final,2024.1.5,None,2024-08-01 15h36.17.654286 +0530,
images/5n.tiff,images/18n.tiff,"(0.3, 0.2)","(-0.3, 0.2)",0,10,10,21,,,,,,,,,,,,,,,,,20.34519530000398,,,,,,,,,20.335493000005954,20.34519530000398,20.83880379999755,20.838832900000853,20.8519568000047,21.038775399996666,21.038803900009952,21.056915499997558,21.056915499997558,21.056915499997558,21.480082399997627,['m'],[0.41055129999585915],[None],,,,,,,,,,,,,,,,,,,,,,,,,,,,,,,,,,,,,,,,,,,,,,,,,,,,,,,,,,,,,,,,,,,,,,,,,,,,,,,,,,,,,,,,,,,,,,,,,,,340808,001,2024-08-01_15h36.14.492,final,2024.1.5,None,2024-08-01 15h36.17.654286 +0530,
images/10n.tiff,images/4n.tiff,"(0.3, 0.2)","(-0.3, 0.2)",0,11,11,8,,,,,,,,,,,,,,,,,21.491725800005952,,,,,,,,,21.481050200003665,21.491725800005952,21.985181700001704,21.985213599997223,21.99824680000893,22.184933399999863,22.184961799997836,22.202994100007345,22.202994100007345,22.202994100007345,22.599662599997828,['m'],[0.39269180000701454],[None],,,,,,,,,,,,,,,,,,,,,,,,,,,,,,,,,,,,,,,,,,,,,,,,,,,,,,,,,,,,,,,,,,,,,,,,,,,,,,,,,,,,,,,,,,,,,,,,,,,340808,001,2024-08-01_15h36.14.492,final,2024.1.5,None,2024-08-01 15h36.17.654286 +0530,
images/5n.tiff,images/4n.tiff,"(0.3, 0.2)","(-0.3, 0.2)",0,12,12,4,,,,,,,,,,,,,,,,,22.611255099996924,,,,,,,,,22.6003275999974,22.611255099996924,23.10463499999605,23.104667799998424,23.1178871000011,23.304656699998304,23.304682400004822,23.322091900001396,23.322091900001396,23.322091900001396,23.773533300001873,['m'],[0.44957939999585506],[None],,,,,,,,,,,,,,,,,,,,,,,,,,,,,,,,,,,,,,,,,,,,,,,,,,,,,,,,,,,,,,,,,,,,,,,,,,,,,,,,,,,,,,,,,,,,,,,,,,,340808,001,2024-08-01_15h36.14.492,final,2024.1.5,None,2024-08-01 15h36.17.654286 +0530,
images/4n.tiff,images/18n.tiff,"(0.3, 0.2)","(-0.3, 0.2)",0,13,13,18,,,,,,,,,,,,,,,,,23.784173599997303,,,,,,,,,23.774468200004776,23.784173599997303,24.27779800001008,24.277830500010168,24.29098299999896,24.477820600004634,24.477851600007853,24.498700900003314,24.498700900003314,24.498700900003314,25.051252300007036,['m'],[0.5455762000055984],[None],24.997324399999343,24.997324399999343,,,,,,,,,,,,,,,,,,,,,,,,,,,,,,,,,,,,,,,,,,,,,,,,,,,,,,,,,,,,,,,,,,,,,,,,,,,,,,,,,,,,,,,,,,,,,,,,,340808,001,2024-08-01_15h36.14.492,final,2024.1.5,None,2024-08-01 15h36.17.654286 +0530,
images/5n.tiff,images/10n.tiff,"(0.3, 0.2)","(-0.3, 0.2)",0,14,14,20,,,,,,,,,,,,,,,,,25.06377940000675,,,,,,,,,25.051703400007682,25.06377940000675,25.55730690000928,25.557336900004884,25.57039110000187,25.7571847000072,25.757214199998998,25.776276700009475,25.776276700009475,25.776276700009475,26.224827099998947,['m'],[0.44339849999232683],[None],,,,,,,,,,,,,,,,,,,,,,,,,,,,,,,,,,,,,,,,,,,,,,,,,,,,,,,,,,,,,,,,,,,,,,,,,,,,,,,,,,,,,,,,,,,,,,,,,,,340808,001,2024-08-01_15h36.14.492,final,2024.1.5,None,2024-08-01 15h36.17.654286 +0530,
images/18n.tiff,images/4n.tiff,"(0.3, 0.2)","(-0.3, 0.2)",0,15,15,12,,,,,,,,,,,,,,,,,26.236776300007477,,,,,,,,,26.225467299998854,26.236776300007477,26.730149600000004,26.730178400001023,26.743219700001646,26.93012479999743,26.93015600000217,26.950770499999635,26.950770499999635,26.950770499999635,27.424780200002715,['m'],[0.4615316000126768],[None],,,,,,,,,,,,,,,,,,,,,,,,,,,,,,,,,,,,,,,,,,,,,,,,,,,,,,,,,,,,,,,,,,,,,,,,,,,,,,,,,,,,,,,,,,,,,,,,,,,340808,001,2024-08-01_15h36.14.492,final,2024.1.5,None,2024-08-01 15h36.17.654286 +0530,
images/10n.tiff,images/10n.tiff,"(0.3, 0.2)","(-0.3, 0.2)",0,16,16,11,,,,,,,,,,,,,,,,,27.436433599999873,,,,,,,,,27.425624700001208,27.436433599999873,27.92978390000644,27.929866400008905,27.94284940000216,28.129763600009028,28.12979269999778,28.147790900009568,28.147790900009568,28.147790900009568,28.544372700009262,['m'],[0.3921840999973938],[None],,,,,,,,,,,,,,,,,,,,,,,,,,,,,,,,,,,,,,,,,,,,,,,,,,,,,,,,,,,,,,,,,,,,,,,,,,,,,,,,,,,,,,,,,,,,,,,,,,,340808,001,2024-08-01_15h36.14.492,final,2024.1.5,None,2024-08-01 15h36.17.654286 +0530,
images/4n.tiff,images/4n.tiff,"(0.3, 0.2)","(-0.3, 0.2)",0,17,17,19,,,,,,,,,,,,,,,,,28.556148600007873,,,,,,,,,28.545105900004273,28.556148600007873,29.04937590000918,29.049408799997764,29.062673899999936,29.249368000004324,29.249397799998405,29.268499199999496,29.268499199999496,29.268499199999496,29.703181500008213,['m'],[0.42366990000300575],[None],,,,,,,,,,,,,,,,,,,,,,,,,,,,,,,,,,,,,,,,,,,,,,,,,,,,,,,,,,,,,,,,,,,,,,,,,,,,,,,,,,,,,,,,,,,,,,,,,,,340808,001,2024-08-01_15h36.14.492,final,2024.1.5,None,2024-08-01 15h36.17.654286 +0530,
images/18n.tiff,images/10n.tiff,"(0.3, 0.2)","(-0.3, 0.2)",0,18,18,14,,,,,,,,,,,,,,,,,29.71560789999785,,,,,,,,,29.703535100008594,29.71560789999785,30.209099700005027,30.20912739999767,30.22203520000039,30.409082500002114,30.409129100007704,30.428628000008757,30.428628000008757,30.428628000008757,30.810381000002963,['z'],[0.3747931999969296],[None],,,,,,,,,,,,,,,,,,,,,,,,,,,,,,,,,,,,,,,,,,,,,,,,,,,,,,,,,,,,,,,,,,,,,,,,,,,,,,,,,,,,,,,,,,,,,,,,,,,340808,001,2024-08-01_15h36.14.492,final,2024.1.5,None,2024-08-01 15h36.17.654286 +0530,
images/18n.tiff,images/18n.tiff,"(0.3, 0.2)","(-0.3, 0.2)",0,19,19,15,,,,,,,,,,,,,,,,,30.821985900009167,,,,,,,,,30.81101830000989,30.821985900009167,31.315378700004658,31.3154099000094,31.32876899999974,31.515254900004948,31.515284100009012,31.53316300000006,31.53316300000006,31.53316300000006,31.90259930001048,['m'],[0.3589005999965593],[None],,,,,,,,,,,,,,,,,,,,,,,,,,,,,,,,,,,,,,,,,,,,,,,,,,,,,,,,,,,,,,,,,,,,,,,,,,,,,,,,,,,,,,,,,,,,,,,,,,,340808,001,2024-08-01_15h36.14.492,final,2024.1.5,None,2024-08-01 15h36.17.654286 +0530,
images/5n.tiff,images/10n.tiff,"(0.3, 0.2)","(-0.3, 0.2)",0,20,20,5,,,,,,,,,,,,,,,,,31.915015899998252,,,,,,,,,31.903011200003675,31.915015899998252,32.40823290000844,32.40833050000947,32.42132409999613,32.60822619999817,32.60825220000697,32.6291848999972,32.6291848999972,32.6291848999972,33.22324920000392,['m'],[0.590412000005017],[None],33.127916400000686,33.127916400000686,,,,,,,,,,,,,,,,,,,,,,,,,,,,,,,,,,,,,,,,,,,,,,,,,,,,,,,,,,,,,,,,,,,,,,,,,,,,,,,,,,,,,,,,,,,,,,,,,340808,001,2024-08-01_15h36.14.492,final,2024.1.5,None,2024-08-01 15h36.17.654286 +0530,
images/5n.tiff,images/5n.tiff,"(0.3, 0.2)","(-0.3, 0.2)",0,21,21,7,,,,,,,,,,,,,,,,,33.23459659999935,,,,,,,,,33.22421939999913,33.23459659999935,33.72807150000881,33.72811510000611,33.740936600006535,33.92813179999939,33.92816630000016,33.94875150000735,33.94875150000735,33.94875150000735,34.22254380000231,['m'],[0.2626989999989746],[None],,,,,,,,,,,,,,,,,,,,,,,,,,,,,,,,,,,,,,,,,,,,,,,,,,,,,,,,,,,,,,,,,,,,,,,,,,,,,,,,,,,,,,,,,,,,,,,,,,,340808,001,2024-08-01_15h36.14.492,final,2024.1.5,None,2024-08-01 15h36.17.654286 +0530,
images/18n.tiff,images/18n.tiff,"(0.3, 0.2)","(-0.3, 0.2)",0,22,22,25,,,,,,,,,,,,,,,,,34.234204899999895,,,,,,,,,34.223310400004266,34.234204899999895,34.727490999997826,34.72751880000578,34.74057890000404,34.927516199997626,34.92758590000449,34.94664530000591,34.94664530000591,34.94664530000591,35.36859290000575,['m'],[0.4176338000106625],[None],,,,,,,,,,,,,,,,,,,,,,,,,,,,,,,,,,,,,,,,,,,,,,,,,,,,,,,,,,,,,,,,,,,,,,,,,,,,,,,,,,,,,,,,,,,,,,,,,,,340808,001,2024-08-01_15h36.14.492,final,2024.1.5,None,2024-08-01 15h36.17.654286 +0530,
images/18n.tiff,images/4n.tiff,"(0.3, 0.2)","(-0.3, 0.2)",0,23,23,29,,,,,,,,,,,,,,,,,35.38036710000597,,,,,,,,,35.36914799999795,35.38036710000597,35.8739779000025,35.874010800005635,35.88718180000433,36.07406460000493,36.07409570000891,36.092597000009846,36.092597000009846,36.092597000009846,53.4026700000104,['z'],[17.302881599985994],[None],36.59342020000622,36.59342020000622,,,,,,,,,,,,,,,,,,,,,,,,,,,,,,,,,,,,,,,,,,,,,,,,,,,,,,,,,,,,,,,,,,,,,,,,,,,,,,,,,,,,,,,,,,,,,,,,,340808,001,2024-08-01_15h36.14.492,final,2024.1.5,None,2024-08-01 15h36.17.654286 +0530,
images/4n.tiff,images/4n.tiff,"(0.3, 0.2)","(-0.3, 0.2)",0,24,24,3,,,,,,,,,,,,,,,,,53.41443840001011,,,,,,,,,53.40331710000464,53.41443840001011,53.90805840000394,53.90809330000775,53.92129739999655,54.107960200009984,54.107993600002374,54.12810560000071,54.12810560000071,54.12810560000071,54.65480859999661,['m'],[0.5157486000098288],[None],54.62754300000961,54.62754300000961,,,,,,,,,,,,,,,,,,,,,,,,,,,,,,,,,,,,,,,,,,,,,,,,,,,,,,,,,,,,,,,,,,,,,,,,,,,,,,,,,,,,,,,,,,,,,,,,,340808,001,2024-08-01_15h36.14.492,final,2024.1.5,None,2024-08-01 15h36.17.654286 +0530,
images/10n.tiff,images/10n.tiff,"(0.3, 0.2)","(-0.3, 0.2)",0,25,25,24,,,,,,,,,,,,,,,,,54.667420500001754,,,,,,,,,54.65536129999964,54.667420500001754,55.16088710000622,55.160919900008594,55.173904700001,55.360745099998894,55.36077149999619,55.38015360001009,55.38015360001009,55.38015360001009,55.97400470000866,['z'],[0.583860700004152],[None],55.88046600000234,55.88046600000234,,,,,,,,,,,,,,,,,,,,,,,,,,,,,,,,,,,,,,,,,,,,,,,,,,,,,,,,,,,,,,,,,,,,,,,,,,,,,,,,,,,,,,,,,,,,,,,,,340808,001,2024-08-01_15h36.14.492,final,2024.1.5,None,2024-08-01 15h36.17.654286 +0530,
images/4n.tiff,images/5n.tiff,"(0.3, 0.2)","(-0.3, 0.2)",0,26,26,16,,,,,,,,,,,,,,,,,55.98689290000766,,,,,,,,,55.974312400008785,55.98689290000766,56.48031280000578,56.48039369999606,56.49344069999643,56.68041240000457,56.68044370001007,56.70063289999962,56.70063289999962,56.70063289999962,56.96131759999844,['m'],[0.24730859999544919],[None],,,,,,,,,,,,,,,,,,,,,,,,,,,,,,,,,,,,,,,,,,,,,,,,,,,,,,,,,,,,,,,,,,,,,,,,,,,,,,,,,,,,,,,,,,,,,,,,,,,340808,001,2024-08-01_15h36.14.492,final,2024.1.5,None,2024-08-01 15h36.17.654286 +0530,
images/10n.tiff,images/18n.tiff,"(0.3, 0.2)","(-0.3, 0.2)",0,27,27,23,,,,,,,,,,,,,,,,,56.97329829999944,,,,,,,,,56.96212480000395,56.97329829999944,57.46669240000483,57.466720800002804,57.47987409999769,57.66657180000038,57.6665997000091,57.686867399999755,57.686867399999755,57.686867399999755,59.41379950000555,['m'],[1.7176236000086647],[None],58.18630580000172,58.18630580000172,,,,,,,,,,,,,,,,,,,,,,,,,,,,,,,,,,,,,,,,,,,,,,,,,,,,,,,,,,,,,,,,,,,,,,,,,,,,,,,,,,,,,,,,,,,,,,,,,340808,001,2024-08-01_15h36.14.492,final,2024.1.5,None,2024-08-01 15h36.17.654286 +0530,
images/4n.tiff,images/18n.tiff,"(0.3, 0.2)","(-0.3, 0.2)",0,28,28,2,,,,,,,,,,,,,,,,,59.425834900001064,,,,,,,,,59.4146189000021,59.425834900001064,59.919221000003745,59.91925110000011,59.932248099998105,60.11930800000846,60.11933980000322,60.13697730000422,60.13697730000422,60.13697730000422,60.480999799998244,['z'],[0.3389906999946106],[None],,,,,,,,,,,,,,,,,,,,,,,,,,,,,,,,,,,,,,,,,,,,,,,,,,,,,,,,,,,,,,,,,,,,,,,,,,,,,,,,,,,,,,,,,,,,,,,,,,,340808,001,2024-08-01_15h36.14.492,final,2024.1.5,None,2024-08-01 15h36.17.654286 +0530,
images/18n.tiff,images/10n.tiff,"(0.3, 0.2)","(-0.3, 0.2)",0,29,29,28,,,,,,,,,,,,,,,,,60.492160399997374,,,,,,,,,60.48186090000672,60.492160399997374,60.985663600004045,60.98569600000337,60.998725400000694,61.18571859999793,61.185750200005714,61.20867800000997,61.20867800000997,61.20867800000997,61.48045689999708,['m'],[0.26708720000169706],[None],,,,,,,,,,,,,,,,,,,,,,,,,,,,,,,,,,,,,,,,,,,,,,,,,,,,,,,,,,,,,,,,,,,,,,,,,,,,,,,,,,,,,,,,,,,,,,,,,,,340808,001,2024-08-01_15h36.14.492,final,2024.1.5,None,2024-08-01 15h36.17.654286 +0530,
,,,,,,,,,,,,,,,,,,,,,,,,,,,,,,,,,,,,,,,,,,,,,,,,,61.481099800002994,61.49181049999606,61.49181049999606,99.90706389999832,space,38.40771609998774,None,,,,,,,,,,,,,,,,,,,,,,,,,,,,,,,,,,,,,,,,,,,,,,,,,,,,,,,,,,,,,,,,,,,,,,,,,,,,,,,,,,,,,,,,,,340808,001,2024-08-01_15h36.14.492,final,2024.1.5,None,2024-08-01 15h36.17.654286 +0530,
images/5n.tiff,images/5n.tiff,,,,,,,0,0,0,0,,,,,,,,,,,,,99.92226600000868,,,,,,,,,,,,,,,,,,,,,,,,,,,,,,,,99.9202030000015,99.92226600000868,100.41260890000558,100.41264049999882,100.42575999999826,100.61257559999649,100.6126074000058,100.63310320000164,100.63310320000164,100.63310320000164,101.08068290000665,['z'],[0.4343213999964064],[None],,,,,,,,,,,,,,,,,,,,,,,,,,,,,,,,,,,,,,,,,,,,,,,,,,,,,,,,,,,,,,,,,,,,,,,,,,,,340808,001,2024-08-01_15h36.14.492,final,2024.1.5,None,2024-08-01 15h36.17.654286 +0530,
images/10n.tiff,images/10n.tiff,,,,,,,0,1,1,2,,,,,,,,,,,,,101.09217530000024,,,,,,,,,,,,,,,,,,,,,,,,,,,,,,,,101.082479100005,101.09217530000024,101.58579820000159,101.58583160000853,101.59860240000125,101.78556560000288,101.7855966000061,101.80801910000446,101.80801910000446,101.80801910000446,102.2944215000025,['m'],[0.48402649999479763],[None],102.30514730000868,102.30514730000868,,,,,,,,,,,,,,,,,,,,,,,,,,,,,,,,,,,,,,,,,,,,,,,,,,,,,,,,,,,,,,,,,,,,,,,,,,340808,001,2024-08-01_15h36.14.492,final,2024.1.5,None,2024-08-01 15h36.17.654286 +0530,
images/10n.tiff,images/10n.tiff,,,,,,,0,2,2,5,,,,,,,,,,,,,102.30514730000868,,,,,,,,,,,,,,,,,,,,,,,,,,,,,,,,102.29532410000684,102.30514730000868,102.79841319999832,102.79844559999765,102.81163599999854,102.99851679999847,102.9985488000093,103.01775720001024,103.01775720001024,103.01775720001024,103.35891170000832,['z'],[0.32999879999260884],[None],,,,,,,,,,,,,,,,,,,,,,,,,,,,,,,,,,,,,,,,,,,,,,,,,,,,,,,,,,,,,,,,,,,,,,,,,,,,340808,001,2024-08-01_15h36.14.492,final,2024.1.5,None,2024-08-01 15h36.17.654286 +0530,
images/5n.tiff,images/10n.tiff,,,,,,,0,3,3,1,,,,,,,,,,,,,103.37128279999888,,,,,,,,,,,,,,,,,,,,,,,,,,,,,,,,103.35933390000719,103.37128279999888,103.86479279999912,103.86482689999684,103.87788470000669,104.0649817000085,104.06501800000842,104.08534930000314,104.08534930000314,104.08534930000314,104.47822740000265,['z'],[0.38216629999806173],[None],,,,,,,,,,,,,,,,,,,,,,,,,,,,,,,,,,,,,,,,,,,,,,,,,,,,,,,,,,,,,,,,,,,,,,,,,,,,340808,001,2024-08-01_15h36.14.492,final,2024.1.5,None,2024-08-01 15h36.17.654286 +0530,
images/10n.tiff,images/5n.tiff,,,,,,,0,4,4,3,,,,,,,,,,,,,104.49101209999935,,,,,,,,,,,,,,,,,,,,,,,,,,,,,,,,104.47866609999619,104.49101209999935,104.98462760000257,104.9846772000019,104.99754680000478,105.18432830000529,105.184353500008,105.20118489999732,105.20118489999732,105.20118489999732,105.55943920000573,['m'],[0.35414189999573864],[None],,,,,,,,,,,,,,,,,,,,,,,,,,,,,,,,,,,,,,,,,,,,,,,,,,,,,,,,,,,,,,,,,,,,,,,,,,,,340808,001,2024-08-01_15h36.14.492,final,2024.1.5,None,2024-08-01 15h36.17.654286 +0530,
images/5n.tiff,images/5n.tiff,,,,,,,0,5,5,4,,,,,,,,,,,,,105.57074500000454,,,,,,,,,,,,,,,,,,,,,,,,,,,,,,,,105.56054420000874,105.57074500000454,106.06411390000721,106.06414790000417,106.07719199999701,106.26409710000735,106.26412770000752,106.28326460000244,106.28326460000244,106.28326460000244,106.77184760000091,['z'],[0.4808214999939082],[None],106.78357110000798,106.78357110000798,,,,,,,,,,,,,,,,,,,,,,,,,,,,,,,,,,,,,,,,,,,,,,,,,,,,,,,,,,,,,,,,,,,,,,,,,,340808,001,2024-08-01_15h36.14.492,final,2024.1.5,None,2024-08-01 15h36.17.654286 +0530,
images/5n.tiff,images/5n.tiff,,,,,,,1,0,6,4,,,,,,,,,,,,,106.78357110000798,,,,,,,,,,,,,,,,,,,,,,,,,,,,,,,,106.77265060000354,106.78357110000798,107.2770928999962,107.27712910000992,107.29027759999735,107.47684899999877,107.4768766000052,107.49540260000504,107.49540260000504,107.49540260000504,107.8648930000054,['m'],[0.36550050000369083],[None],,,,,,,,,,,,,,,,,,,,,,,,,,,,,,,,,,,,,,,,,,,,,,,,,,,,,,,,,,,,,,,,,,,,,,,,,,,,340808,001,2024-08-01_15h36.14.492,final,2024.1.5,None,2024-08-01 15h36.17.654286 +0530,
images/5n.tiff,images/10n.tiff,,,,,,,1,1,7,1,,,,,,,,,,,,,107.87624179999693,,,,,,,,,,,,,,,,,,,,,,,,,,,,,,,,107.86565530000371,107.87624179999693,108.37000239999907,108.37003170000389,108.38303850000375,108.57010910000827,108.57014110000455,108.59052060000249,108.59052060000249,108.59052060000249,108.99844860000303,['z'],[0.40542070000083186],[None],,,,,,,,,,,,,,,,,,,,,,,,,,,,,,,,,,,,,,,,,,,,,,,,,,,,,,,,,,,,,,,,,,,,,,,,,,,,340808,001,2024-08-01_15h36.14.492,final,2024.1.5,None,2024-08-01 15h36.17.654286 +0530,
images/5n.tiff,images/5n.tiff,,,,,,,1,2,8,0,,,,,,,,,,,,,109.00958540001011,,,,,,,,,,,,,,,,,,,,,,,,,,,,,,,,108.99942120000196,109.00958540001011,109.50285030000668,109.50288149999687,109.51591460000782,109.70286459999625,109.70289610000327,109.72082590000355,109.72082590000355,109.72082590000355,110.22396220000519,['m'],[0.49117029999615625],[None],110.22243940000772,110.22243940000772,,,,,,,,,,,,,,,,,,,,,,,,,,,,,,,,,,,,,,,,,,,,,,,,,,,,,,,,,,,,,,,,,,,,,,,,,,340808,001,2024-08-01_15h36.14.492,final,2024.1.5,None,2024-08-01 15h36.17.654286 +0530,
images/10n.tiff,images/10n.tiff,,,,,,,1,3,9,2,,,,,,,,,,,,,110.23563090000243,,,,,,,,,,,,,,,,,,,,,,,,,,,,,,,,110.22497000001022,110.23563090000243,110.72937380000076,110.72941070000525,110.74236940000264,110.92897809999704,110.92899850000686,110.94484830000147,110.94484830000147,110.94484830000147,111.22331889999623,['z'],[0.2667252999963239],[None],,,,,,,,,,,,,,,,,,,,,,,,,,,,,,,,,,,,,,,,,,,,,,,,,,,,,,,,,,,,,,,,,,,,,,,,,,,,340808,001,2024-08-01_15h36.14.492,final,2024.1.5,None,2024-08-01 15h36.17.654286 +0530,
images/10n.tiff,images/5n.tiff,,,,,,,1,4,10,3,,,,,,,,,,,,,111.23526020000281,,,,,,,,,,,,,,,,,,,,,,,,,,,,,,,,111.22421369999938,111.23526020000281,111.72872189999907,111.72875419999764,111.74201780000294,111.92876550000801,111.92879900000116,111.94814480000059,111.94814480000059,111.94814480000059,112.58358400000725,['m'],[0.631384699998307],[None],112.44847190000291,112.44847190000291,,,,,,,,,,,,,,,,,,,,,,,,,,,,,,,,,,,,,,,,,,,,,,,,,,,,,,,,,,,,,,,,,,,,,,,,,,340808,001,2024-08-01_15h36.14.492,final,2024.1.5,None,2024-08-01 15h36.17.654286 +0530,
images/10n.tiff,images/10n.tiff,,,,,,,1,5,11,5,,,,,,,,,,,,,112.59484620000876,,,,,,,,,,,,,,,,,,,,,,,,,,,,,,,,112.58471080000163,112.59484620000876,113.08831449999707,113.0883465000079,113.10147799999686,113.28831470001023,113.2883431000082,113.30799050000496,113.30799050000496,113.30799050000496,113.78350370000408,['z'],[0.4722343000030378],[None],,,,,,,,,,,,,,,,,,,,,,,,,,,,,,,,,,,,,,,,,,,,,,,,,,,,,,,,,,,,,,,,,,,,,,,,,,,,340808,001,2024-08-01_15h36.14.492,final,2024.1.5,None,2024-08-01 15h36.17.654286 +0530,
images/10n.tiff,images/10n.tiff,,,,,,,2,0,12,5,,,,,,,,,,,,,113.7944290000014,,,,,,,,,,,,,,,,,,,,,,,,,,,,,,,,113.78434100000595,113.7944290000014,114.28807490000327,114.28810849999718,114.30108940000355,114.48786269999982,114.48789560000296,114.50581770000281,114.50581770000281,114.50581770000281,115.06183890000102,['z'],[0.5454601000092225],[None],115.0075222000014,115.0075222000014,,,,,,,,,,,,,,,,,,,,,,,,,,,,,,,,,,,,,,,,,,,,,,,,,,,,,,,,,,,,,,,,,,,,,,,,,,340808,001,2024-08-01_15h36.14.492,final,2024.1.5,None,2024-08-01 15h36.17.654286 +0530,
images/5n.tiff,images/10n.tiff,,,,,,,2,1,13,1,,,,,,,,,,,,,115.07401609999943,,,,,,,,,,,,,,,,,,,,,,,,,,,,,,,,115.06260340000154,115.07401609999943,115.56754119999823,115.5675734999968,115.58067110000411,115.76752269999997,115.76755489999778,115.78590020000411,115.78590020000411,115.78590020000411,116.30096510000294,['m'],[0.5060168000054546],[None],116.28710169999977,116.28710169999977,,,,,,,,,,,,,,,,,,,,,,,,,,,,,,,,,,,,,,,,,,,,,,,,,,,,,,,,,,,,,,,,,,,,,,,,,,340808,001,2024-08-01_15h36.14.492,final,2024.1.5,None,2024-08-01 15h36.17.654286 +0530,
images/10n.tiff,images/5n.tiff,,,,,,,2,2,14,3,,,,,,,,,,,,,116.31347819999792,,,,,,,,,,,,,,,,,,,,,,,,,,,,,,,,116.30140009999741,116.31347819999792,116.80705470000976,116.80708610000147,116.8203349999967,117.00703069999872,117.00706190000346,117.02538050001021,117.02538050001021,117.02538050001021,117.46281749999616,['z'],[0.4347373000055086],[None],,,,,,,,,,,,,,,,,,,,,,,,,,,,,,,,,,,,,,,,,,,,,,,,,,,,,,,,,,,,,,,,,,,,,,,,,,,,340808,001,2024-08-01_15h36.14.492,final,2024.1.5,None,2024-08-01 15h36.17.654286 +0530,
images/10n.tiff,images/10n.tiff,,,,,,,2,3,15,2,,,,,,,,,,,,,117.4732256999996,,,,,,,,,,,,,,,,,,,,,,,,,,,,,,,,117.46369489999779,117.4732256999996,117.96702840000216,117.96705950000614,117.97995190000802,118.1666710999998,118.16670210000302,118.18558289999783,118.18558289999783,118.18558289999783,118.66097830000217,['m'],[0.46607460000086576],[None],,,,,,,,,,,,,,,,,,,,,,,,,,,,,,,,,,,,,,,,,,,,,,,,,,,,,,,,,,,,,,,,,,,,,,,,,,,,340808,001,2024-08-01_15h36.14.492,final,2024.1.5,None,2024-08-01 15h36.17.654286 +0530,
images/5n.tiff,images/5n.tiff,,,,,,,2,4,16,0,,,,,,,,,,,,,118.67289909999818,,,,,,,,,,,,,,,,,,,,,,,,,,,,,,,,118.6614711000002,118.67289909999818,119.16642449999927,119.16645659999631,119.1795456999971,119.36625430001004,119.36630570000852,119.38885260000825,119.38885260000825,119.38885260000825,119.94224610000674,['z'],[0.550946200004546],[None],119.88592890001019,119.88592890001019,,,,,,,,,,,,,,,,,,,,,,,,,,,,,,,,,,,,,,,,,,,,,,,,,,,,,,,,,,,,,,,,,,,,,,,,,,340808,001,2024-08-01_15h36.14.492,final,2024.1.5,None,2024-08-01 15h36.17.654286 +0530,
images/5n.tiff,images/5n.tiff,,,,,,,2,5,17,4,,,,,,,,,,,,,119.9524800000072,,,,,,,,,,,,,,,,,,,,,,,,,,,,,,,,119.94316880000406,119.9524800000072,120.44587820000015,120.44591090000176,120.45905889999995,120.64560960000381,120.64561680000043,120.6619117000082,120.6619117000082,120.6619117000082,121.08762130000105,['z'],[0.4225559000042267],[None],,,,,,,,,,,,,,,,,,,,,,,,,,,,,,,,,,,,,,,,,,,,,,,,,,,,,,,,,,,,,,,,,,,,,,,,,,,,340808,001,2024-08-01_15h36.14.492,final,2024.1.5,None,2024-08-01 15h36.17.654286 +0530,
images/5n.tiff,images/5n.tiff,,,,,,,3,0,18,4,,,,,,,,,,,,,121.09877450000204,,,,,,,,,,,,,,,,,,,,,,,,,,,,,,,,121.08850540001004,121.09877450000204,121.59201220000978,121.59204260000843,121.60534660000121,121.79202480000095,121.79205709999951,121.811778400006,121.811778400006,121.811778400006,122.25933980000264,['z'],[0.4395507000008365],[None],,,,,,,,,,,,,,,,,,,,,,,,,,,,,,,,,,,,,,,,,,,,,,,,,,,,,,,,,,,,,,,,,,,,,,,,,,,,340808,001,2024-08-01_15h36.14.492,final,2024.1.5,None,2024-08-01 15h36.17.654286 +0530,
images/5n.tiff,images/10n.tiff,,,,,,,3,1,19,1,,,,,,,,,,,,,122.27153579999867,,,,,,,,,,,,,,,,,,,,,,,,,,,,,,,,122.25986010000634,122.27153579999867,122.76532420000876,122.76535750000039,122.77843489999941,122.96515580000414,122.96518680000736,122.98361219999788,122.98361219999788,122.98361219999788,123.44700149999699,['z'],[0.46053859998937696],[None],,,,,,,,,,,,,,,,,,,,,,,,,,,,,,,,,,,,,,,,,,,,,,,,,,,,,,,,,,,,,,,,,,,,,,,,,,,,340808,001,2024-08-01_15h36.14.492,final,2024.1.5,None,2024-08-01 15h36.17.654286 +0530,
images/10n.tiff,images/5n.tiff,,,,,,,3,2,20,3,,,,,,,,,,,,,123.45798649999779,,,,,,,,,,,,,,,,,,,,,,,,,,,,,,,,123.44784940000682,123.45798649999779,123.95111609999731,123.95112579999841,123.96460140000272,124.15132030000677,124.15135210000153,124.17087370000081,124.17087370000081,124.17087370000081,124.76591870000993,['m'],[0.5849148000124842],[None],124.67088360000344,124.67088360000344,,,,,,,,,,,,,,,,,,,,,,,,,,,,,,,,,,,,,,,,,,,,,,,,,,,,,,,,,,,,,,,,,,,,,,,,,,340808,001,2024-08-01_15h36.14.492,final,2024.1.5,None,2024-08-01 15h36.17.654286 +0530,
images/5n.tiff,images/5n.tiff,,,,,,,3,3,21,0,,,,,,,,,,,,,124.77767199999653,,,,,,,,,,,,,,,,,,,,,,,,,,,,,,,,124.76637589999882,124.77767199999653,125.27088330000697,125.27091839999775,125.28413480000745,125.47084080000059,125.47087140000076,125.49259940000775,125.49259940000775,125.49259940000775,126.0720408000052,['z'],[0.5749080000096001],[None],125.99041189999843,125.99041189999843,,,,,,,,,,,,,,,,,,,,,,,,,,,,,,,,,,,,,,,,,,,,,,,,,,,,,,,,,,,,,,,,,,,,,,,,,,340808,001,2024-08-01_15h36.14.492,final,2024.1.5,None,2024-08-01 15h36.17.654286 +0530,
images/10n.tiff,images/10n.tiff,,,,,,,3,4,22,5,,,,,,,,,,,,,126.08377949999704,,,,,,,,,,,,,,,,,,,,,,,,,,,,,,,,126.07313350000186,126.08377949999704,126.57720569999947,126.57723930000793,126.59025850000035,126.7773004000046,126.77733280000393,126.7983421000099,126.7983421000099,126.7983421000099,127.47177679999731,['m'],[0.6691354000067804],[None],127.2967850999994,127.2967850999994,,,,,,,,,,,,,,,,,,,,,,,,,,,,,,,,,,,,,,,,,,,,,,,,,,,,,,,,,,,,,,,,,,,,,,,,,,340808,001,2024-08-01_15h36.14.492,final,2024.1.5,None,2024-08-01 15h36.17.654286 +0530,
images/10n.tiff,images/10n.tiff,,,,,,,3,5,23,2,,,,,,,,,,,,,127.48325350000232,,,,,,,,,,,,,,,,,,,,,,,,,,,,,,,,127.4727300000086,127.48325350000232,127.97671060000721,127.97674280000501,127.98975160000555,128.17666300000565,128.17669490000117,128.19658479999634,128.19658479999634,128.19658479999634,128.63081450000755,['z'],[0.4226900000066962],[None],,,,,,,,,,,,,,,,,,,,,,,,,,,,,,,,,,,,,,,,,,,,,,,,,,,,,,,,,,,,,,,,,,,,,,,,,,,,340808,001,2024-08-01_15h36.14.492,final,2024.1.5,None,2024-08-01 15h36.17.654286 +0530,
images/10n.tiff,images/5n.tiff,,,,,,,4,0,24,3,,,,,,,,,,,,,128.64295890000358,,,,,,,,,,,,,,,,,,,,,,,,,,,,,,,,128.63154139999824,128.64295890000358,129.13631430000532,129.13634559999628,129.14937569999893,129.33625880000181,129.33629140000266,129.35502930000075,129.35502930000075,129.35502930000075,129.86967110000842,['m'],[0.5045047000021441],[None],129.85602249999647,129.85602249999647,,,,,,,,,,,,,,,,,,,,,,,,,,,,,,,,,,,,,,,,,,,,,,,,,,,,,,,,,,,,,,,,,,,,,,,,,,340808,001,2024-08-01_15h36.14.492,final,2024.1.5,None,2024-08-01 15h36.17.654286 +0530,
images/10n.tiff,images/10n.tiff,,,,,,,4,1,25,2,,,,,,,,,,,,,129.88255480000225,,,,,,,,,,,,,,,,,,,,,,,,,,,,,,,,129.87007230000745,129.88255480000225,130.3760481000063,130.37608090000867,130.3889809000102,130.57584360000328,130.57588590000523,130.5931966000062,130.5931966000062,130.5931966000062,131.00339050000184,['z'],[0.4025658000027761],[None],,,,,,,,,,,,,,,,,,,,,,,,,,,,,,,,,,,,,,,,,,,,,,,,,,,,,,,,,,,,,,,,,,,,,,,,,,,,340808,001,2024-08-01_15h36.14.492,final,2024.1.5,None,2024-08-01 15h36.17.654286 +0530,
images/5n.tiff,images/10n.tiff,,,,,,,4,2,26,1,,,,,,,,,,,,,131.0154371999961,,,,,,,,,,,,,,,,,,,,,,,,,,,,,,,,131.00395350001054,131.0154371999961,131.50862160000543,131.5086420000007,131.52198649999627,131.70869349999703,131.70872209999652,131.72686490000342,131.72686490000342,131.72686490000342,133.45634309999878,['m'],[1.7253189999901224],[None],132.2286247000011,132.2286247000011,,,,,,,,,,,,,,,,,,,,,,,,,,,,,,,,,,,,,,,,,,,,,,,,,,,,,,,,,,,,,,,,,,,,,,,,,,340808,001,2024-08-01_15h36.14.492,final,2024.1.5,None,2024-08-01 15h36.17.654286 +0530,
images/10n.tiff,images/10n.tiff,,,,,,,4,3,27,5,,,,,,,,,,,,,133.46802200000093,,,,,,,,,,,,,,,,,,,,,,,,,,,,,,,,133.45726170000853,133.46802200000093,133.96150900000066,133.96154230000684,133.97458590001042,134.1613795000012,134.16140779999841,134.17852260000654,134.17852260000654,134.17852260000654,134.88249070000893,['z'],[0.6972370000003139],[None],134.68111390000558,134.68111390000558,,,,,,,,,,,,,,,,,,,,,,,,,,,,,,,,,,,,,,,,,,,,,,,,,,,,,,,,,,,,,,,,,,,,,,,,,,340808,001,2024-08-01_15h36.14.492,final,2024.1.5,None,2024-08-01 15h36.17.654286 +0530,
images/5n.tiff,images/5n.tiff,,,,,,,4,4,28,4,,,,,,,,,,,,,134.89426000000094,,,,,,,,,,,,,,,,,,,,,,,,,,,,,,,,134.88334840000607,134.89426000000094,135.38752699999895,135.3875587000075,135.400956700003,135.58753040000738,135.58756260000519,135.6081744999974,135.6081744999974,135.6081744999974,136.18789690000995,['m'],[0.5720728000014788],[None],136.10709180000413,136.10709180000413,,,,,,,,,,,,,,,,,,,,,,,,,,,,,,,,,,,,,,,,,,,,,,,,,,,,,,,,,,,,,,,,,,,,,,,,,,340808,001,2024-08-01_15h36.14.492,final,2024.1.5,None,2024-08-01 15h36.17.654286 +0530,
images/5n.tiff,images/5n.tiff,,,,,,,4,5,29,0,,,,,,,,,,,,,136.2004300999979,,,,,,,,,,,,,,,,,,,,,,,,,,,,,,,,136.18863560000318,136.2004300999979,136.69389760000922,136.6939265999972,136.7069887999969,136.89379790000385,136.89382870000554,136.91318090001005,136.91318090001005,136.91318090001005,137.2157273000048,['z'],[0.29885720000311267],[None],,,,,,,,,,,,,,,,,,,,,,,,,,,,,,,,,,,,,,,,,,,,,,,,,,,,,,,,,,,,,,,,,,,,,,,,,,,,340808,001,2024-08-01_15h36.14.492,final,2024.1.5,None,2024-08-01 15h36.17.654286 +0530,
images/10n.tiff,images/10n.tiff,,,,,,,5,0,30,2,,,,,,,,,,,,,137.22664020000957,,,,,,,,,,,,,,,,,,,,,,,,,,,,,,,,137.21658619999653,137.22664020000957,137.7201791999978,137.72020989999874,137.73340630000166,137.92022400000133,137.92025779999676,137.94003150000935,137.94003150000935,137.94003150000935,138.36191459999827,['z'],[0.4157959000003757],[None],,,,,,,,,,,,,,,,,,,,,,,,,,,,,,,,,,,,,,,,,,,,,,,,,,,,,,,,,,,,,,,,,,,,,,,,,,,,340808,001,2024-08-01_15h36.14.492,final,2024.1.5,None,2024-08-01 15h36.17.654286 +0530,
images/5n.tiff,images/5n.tiff,,,,,,,5,1,31,4,,,,,,,,,,,,,138.37315270000545,,,,,,,,,,,,,,,,,,,,,,,,,,,,,,,,138.36274730000878,138.37315270000545,138.8666446999996,138.86668170000485,138.8797889999987,139.0663407000102,139.06637529999716,139.08474770000612,139.08474770000612,139.08474770000612,139.49503069999628,['m'],[0.40663990000030026],[None],,,,,,,,,,,,,,,,,,,,,,,,,,,,,,,,,,,,,,,,,,,,,,,,,,,,,,,,,,,,,,,,,,,,,,,,,,,,340808,001,2024-08-01_15h36.14.492,final,2024.1.5,None,2024-08-01 15h36.17.654286 +0530,
images/5n.tiff,images/5n.tiff,,,,,,,5,2,32,0,,,,,,,,,,,,,139.50593539999682,,,,,,,,,,,,,,,,,,,,,,,,,,,,,,,,139.49583169999823,139.50593539999682,139.99927820000448,139.9993061999994,140.01284880000458,140.199371900002,140.19940240000142,140.2183445999981,140.2183445999981,140.2183445999981,140.57379979999678,['z'],[0.3451414000010118],[None],,,,,,,,,,,,,,,,,,,,,,,,,,,,,,,,,,,,,,,,,,,,,,,,,,,,,,,,,,,,,,,,,,,,,,,,,,,,340808,001,2024-08-01_15h36.14.492,final,2024.1.5,None,2024-08-01 15h36.17.654286 +0530,
images/5n.tiff,images/10n.tiff,,,,,,,5,3,33,1,,,,,,,,,,,,,140.58564489999844,,,,,,,,,,,,,,,,,,,,,,,,,,,,,,,,140.57453939999687,140.58564489999844,141.0791828000074,141.07921599999827,141.09232239999983,141.27906280000752,141.27909280000313,141.29707519999647,141.29707519999647,141.29707519999647,141.75921020000533,['m'],[0.45097780000651255],[None],,,,,,,,,,,,,,,,,,,,,,,,,,,,,,,,,,,,,,,,,,,,,,,,,,,,,,,,,,,,,,,,,,,,,,,,,,,,340808,001,2024-08-01_15h36.14.492,final,2024.1.5,None,2024-08-01 15h36.17.654286 +0530,
images/10n.tiff,images/5n.tiff,,,,,,,5,4,34,3,,,,,,,,,,,,,141.77196290000575,,,,,,,,,,,,,,,,,,,,,,,,,,,,,,,,141.7597120999999,141.77196290000575,142.26550740000675,142.265539,142.27859719999833,142.4651509999967,142.46517950000998,142.48504590000084,142.48504590000084,142.48504590000084,142.88014130000374,['z'],[0.3902264000062132],[None],,,,,,,,,,,,,,,,,,,,,,,,,,,,,,,,,,,,,,,,,,,,,,,,,,,,,,,,,,,,,,,,,,,,,,,,,,,,340808,001,2024-08-01_15h36.14.492,final,2024.1.5,None,2024-08-01 15h36.17.654286 +0530,
images/10n.tiff,images/10n.tiff,,,,,,,5,5,35,5,,,,,,,,,,,,,142.891670099998,,,,,,,,,,,,,,,,,,,,,,,,,,,,,,,,142.8809739999997,142.891670099998,143.38503750000382,143.38507190000382,143.3981294999976,143.5850613000075,143.58509590000904,143.60399990000587,143.60399990000587,143.60399990000587,143.8786858000094,['m'],[0.26407479999761563],[None],,,,,,,,,,,,,,,,,,,,,,,,,,,,,,,,,,,,,,,,,,,,,,,,,,,,,,,,,,,,,,,,,,,,,,,,,,,,340808,001,2024-08-01_15h36.14.492,final,2024.1.5,None,2024-08-01 15h36.17.654286 +0530,
images/10n.tiff,images/10n.tiff,,,,,,,6,0,36,2,,,,,,,,,,,,,143.89124599999923,,,,,,,,,,,,,,,,,,,,,,,,,,,,,,,,143.8790999000048,143.89124599999923,144.38477140000032,144.38480810000328,144.39794750000874,144.58447640000668,144.58450900000753,144.60747309999715,144.60747309999715,144.60747309999715,145.0658953000093,['z'],[0.45280410000123084],[None],,,,,,,,,,,,,,,,,,,,,,,,,,,,,,,,,,,,,,,,,,,,,,,,,,,,,,,,,,,,,,,,,,,,,,,,,,,,340808,001,2024-08-01_15h36.14.492,final,2024.1.5,None,2024-08-01 15h36.17.654286 +0530,
images/10n.tiff,images/5n.tiff,,,,,,,6,1,37,3,,,,,,,,,,,,,145.0775558000023,,,,,,,,,,,,,,,,,,,,,,,,,,,,,,,,145.06682970000838,145.0775558000023,145.5707284000091,145.5707442999992,145.58389130000432,145.7709077000036,145.77093470000545,145.78795110000647,145.78795110000647,145.78795110000647,146.35947910000687,['m'],[0.5685891000030097],[None],146.290622600005,146.290622600005,,,,,,,,,,,,,,,,,,,,,,,,,,,,,,,,,,,,,,,,,,,,,,,,,,,,,,,,,,,,,,,,,,,,,,,,,,340808,001,2024-08-01_15h36.14.492,final,2024.1.5,None,2024-08-01 15h36.17.654286 +0530,
images/5n.tiff,images/10n.tiff,,,,,,,6,2,38,1,,,,,,,,,,,,,146.37057710000954,,,,,,,,,,,,,,,,,,,,,,,,,,,,,,,,146.36050850000174,146.37057710000954,146.8637039000023,146.86373620000086,146.87707220000448,147.06381310000143,147.06384550000075,147.08217390000937,147.08217390000937,147.08217390000937,147.75781809999899,['m'],[0.6738917000038782],[None],147.5833519000007,147.5833519000007,,,,,,,,,,,,,,,,,,,,,,,,,,,,,,,,,,,,,,,,,,,,,,,,,,,,,,,,,,,,,,,,,,,,,,,,,,340808,001,2024-08-01_15h36.14.492,final,2024.1.5,None,2024-08-01 15h36.17.654286 +0530,
images/10n.tiff,images/10n.tiff,,,,,,,6,3,39,5,,,,,,,,,,,,,147.76997710000433,,,,,,,,,,,,,,,,,,,,,,,,,,,,,,,,147.7582618000015,147.76997710000433,148.26321540000208,148.26326200000767,148.2765187000041,148.46347109999624,148.46350710000843,148.48245350000798,148.48245350000798,148.48245350000798,148.97128310000699,['z'],[0.48178489999554586],[None],148.98292670000228,148.98292670000228,,,,,,,,,,,,,,,,,,,,,,,,,,,,,,,,,,,,,,,,,,,,,,,,,,,,,,,,,,,,,,,,,,,,,,,,,,340808,001,2024-08-01_15h36.14.492,final,2024.1.5,None,2024-08-01 15h36.17.654286 +0530,
images/5n.tiff,images/5n.tiff,,,,,,,6,4,40,0,,,,,,,,,,,,,148.98292670000228,,,,,,,,,,,,,,,,,,,,,,,,,,,,,,,,148.97201550001046,148.98292670000228,149.47633119999955,149.47636169999896,149.48954320000485,149.67632640000375,149.67635639999935,149.69571250000445,149.69571250000445,149.69571250000445,150.30391420000524,['z'],[0.5965315000066767],[None],150.1959238999989,150.1959238999989,,,,,,,,,,,,,,,,,,,,,,,,,,,,,,,,,,,,,,,,,,,,,,,,,,,,,,,,,,,,,,,,,,,,,,,,,,340808,001,2024-08-01_15h36.14.492,final,2024.1.5,None,2024-08-01 15h36.17.654286 +0530,
images/5n.tiff,images/5n.tiff,,,,,,,6,5,41,4,,,,,,,,,,,,,150.31594159999804,,,,,,,,,,,,,,,,,,,,,,,,,,,,,,,,150.30491710000206,150.31594159999804,150.80940790000022,150.80944009999803,150.82220670000243,151.0093033000012,151.00933559999976,151.02872539999953,151.02872539999953,151.02872539999953,151.47783750000235,['z'],[0.44710079999640584],[None],,,,,,,,,,,,,,,,,,,,,,,,,,,,,,,,,,,,,,,,,,,,,,,,,,,,,,,,,,,,,,,,,,,,,,,,,,,,340808,001,2024-08-01_15h36.14.492,final,2024.1.5,None,2024-08-01 15h36.17.654286 +0530,
images/10n.tiff,images/10n.tiff,,,,,,,7,0,42,5,,,,,,,,,,,,,151.48884669999825,,,,,,,,,,,,,,,,,,,,,,,,,,,,,,,,151.47890699999698,151.48884669999825,151.98208450000675,151.9821329999977,151.99538320000283,152.18201970000518,152.1820471000101,152.20146750001004,152.20146750001004,152.20146750001004,152.63627210000413,['m'],[0.42611179999948945],[None],,,,,,,,,,,,,,,,,,,,,,,,,,,,,,,,,,,,,,,,,,,,,,,,,,,,,,,,,,,,,,,,,,,,,,,,,,,,340808,001,2024-08-01_15h36.14.492,final,2024.1.5,None,2024-08-01 15h36.17.654286 +0530,
images/5n.tiff,images/10n.tiff,,,,,,,7,1,43,1,,,,,,,,,,,,,152.6483869000076,,,,,,,,,,,,,,,,,,,,,,,,,,,,,,,,152.6368053000042,152.6483869000076,153.1417470000015,153.14178220000758,153.15493380000407,153.34167320000415,153.34170679999806,153.3616475000017,153.3616475000017,153.3616475000017,153.72867720000795,['z'],[0.3622317999979714],[None],,,,,,,,,,,,,,,,,,,,,,,,,,,,,,,,,,,,,,,,,,,,,,,,,,,,,,,,,,,,,,,,,,,,,,,,,,,,340808,001,2024-08-01_15h36.14.492,final,2024.1.5,None,2024-08-01 15h36.17.654286 +0530,
images/5n.tiff,images/5n.tiff,,,,,,,7,2,44,4,,,,,,,,,,,,,153.74108550000528,,,,,,,,,,,,,,,,,,,,,,,,,,,,,,,,153.72896619999665,153.74108550000528,154.2349697000027,154.2350058000011,154.24787770000694,154.43467950000195,154.4347134999989,154.45318140000745,154.45318140000745,154.45318140000745,154.76829700000235,['z'],[0.30286419999902137],[None],,,,,,,,,,,,,,,,,,,,,,,,,,,,,,,,,,,,,,,,,,,,,,,,,,,,,,,,,,,,,,,,,,,,,,,,,,,,340808,001,2024-08-01_15h36.14.492,final,2024.1.5,None,2024-08-01 15h36.17.654286 +0530,
images/10n.tiff,images/10n.tiff,,,,,,,7,3,45,2,,,,,,,,,,,,,154.7808367999969,,,,,,,,,,,,,,,,,,,,,,,,,,,,,,,,154.76869379999698,154.7808367999969,155.2743455000018,155.27437720001035,155.28755160000583,155.47429720000946,155.4743274000066,155.49256910000986,155.49256910000986,155.49256910000986,155.74203580000903,['m'],[0.23945540000568144],[None],,,,,,,,,,,,,,,,,,,,,,,,,,,,,,,,,,,,,,,,,,,,,,,,,,,,,,,,,,,,,,,,,,,,,,,,,,,,340808,001,2024-08-01_15h36.14.492,final,2024.1.5,None,2024-08-01 15h36.17.654286 +0530,
images/10n.tiff,images/5n.tiff,,,,,,,7,4,46,3,,,,,,,,,,,,,155.75403850000293,,,,,,,,,,,,,,,,,,,,,,,,,,,,,,,,155.74274450000667,155.75403850000293,156.2476486000087,156.2476830000087,156.26058170000033,156.44740170000296,156.44743250000465,156.46485990000656,156.46485990000656,156.46485990000656,156.91465200000675,['z'],[0.44276479999825824],[None],,,,,,,,,,,,,,,,,,,,,,,,,,,,,,,,,,,,,,,,,,,,,,,,,,,,,,,,,,,,,,,,,,,,,,,,,,,,340808,001,2024-08-01_15h36.14.492,final,2024.1.5,None,2024-08-01 15h36.17.654286 +0530,
images/5n.tiff,images/5n.tiff,,,,,,,7,5,47,0,,,,,,,,,,,,,156.92689460000838,,,,,,,,,,,,,,,,,,,,,,,,,,,,,,,,156.9149744000024,156.92689460000838,157.42058790000738,157.42062400000577,157.43362799999886,157.620310600003,157.62034340000537,157.6389915000036,157.6389915000036,157.6389915000036,157.9684619000036,['z'],[0.316269499991904],[None],,,,,,,,,,,,,,,,,,,,,,,,,,,,,,,,,,,,,,,,,,,,,,,,,,,,,,,,,,,,,,,,,,,,,,,,,,,,340808,001,2024-08-01_15h36.14.492,final,2024.1.5,None,2024-08-01 15h36.17.654286 +0530,
images/10n.tiff,images/5n.tiff,,,,,,,8,0,48,3,,,,,,,,,,,,,157.979954800001,,,,,,,,,,,,,,,,,,,,,,,,,,,,,,,,157.9693006000016,157.979954800001,158.47359910000523,158.47363540000515,158.48658290000458,158.67329340000288,158.67332400000305,158.6934837000008,158.6934837000008,158.6934837000008,159.0874135000049,['m'],[0.38198529998771846],[None],,,,,,,,,,,,,,,,,,,,,,,,,,,,,,,,,,,,,,,,,,,,,,,,,,,,,,,,,,,,,,,,,,,,,,,,,,,,340808,001,2024-08-01_15h36.14.492,final,2024.1.5,None,2024-08-01 15h36.17.654286 +0530,
images/10n.tiff,images/10n.tiff,,,,,,,8,1,49,2,,,,,,,,,,,,,159.0996865000052,,,,,,,,,,,,,,,,,,,,,,,,,,,,,,,,159.08767710000393,159.0996865000052,159.59302500000922,159.5930578999978,159.60610970000562,159.7930204000004,159.79305130000284,159.81605740000668,159.81605740000668,159.81605740000668,160.22022470000957,['z'],[0.39563210000051185],[None],,,,,,,,,,,,,,,,,,,,,,,,,,,,,,,,,,,,,,,,,,,,,,,,,,,,,,,,,,,,,,,,,,,,,,,,,,,,340808,001,2024-08-01_15h36.14.492,final,2024.1.5,None,2024-08-01 15h36.17.654286 +0530,
images/5n.tiff,images/5n.tiff,,,,,,,8,2,50,0,,,,,,,,,,,,,160.23266200000944,,,,,,,,,,,,,,,,,,,,,,,,,,,,,,,,160.22083849999763,160.23266200000944,160.7258858999994,160.72591660000035,160.73894960001053,160.92592229999718,160.92596610001056,160.94511880000937,160.94511880000937,160.94511880000937,161.47372510000423,['m'],[0.5144022000022233],[None],161.44557340000756,161.44557340000756,,,,,,,,,,,,,,,,,,,,,,,,,,,,,,,,,,,,,,,,,,,,,,,,,,,,,,,,,,,,,,,,,,,,,,,,,,340808,001,2024-08-01_15h36.14.492,final,2024.1.5,None,2024-08-01 15h36.17.654286 +0530,
images/10n.tiff,images/10n.tiff,,,,,,,8,3,51,5,,,,,,,,,,,,,161.4855979999993,,,,,,,,,,,,,,,,,,,,,,,,,,,,,,,,161.47462619999715,161.4855979999993,161.97876359999646,161.97879370000737,161.99194669999997,162.17863580000994,162.1786671000009,162.19861800000945,162.19861800000945,162.19861800000945,162.55245679999643,['z'],[0.34128100000089034],[None],,,,,,,,,,,,,,,,,,,,,,,,,,,,,,,,,,,,,,,,,,,,,,,,,,,,,,,,,,,,,,,,,,,,,,,,,,,,340808,001,2024-08-01_15h36.14.492,final,2024.1.5,None,2024-08-01 15h36.17.654286 +0530,
images/5n.tiff,images/10n.tiff,,,,,,,8,4,52,1,,,,,,,,,,,,,162.5651635999966,,,,,,,,,,,,,,,,,,,,,,,,,,,,,,,,162.55292040000495,162.5651635999966,163.05840590001026,163.05843699999969,163.0717192000011,163.25861580000492,163.25866930000484,163.27848249999806,163.27848249999806,163.27848249999806,163.72683140001027,['m'],[0.4457952000084333],[None],,,,,,,,,,,,,,,,,,,,,,,,,,,,,,,,,,,,,,,,,,,,,,,,,,,,,,,,,,,,,,,,,,,,,,,,,,,,340808,001,2024-08-01_15h36.14.492,final,2024.1.5,None,2024-08-01 15h36.17.654286 +0530,
images/5n.tiff,images/5n.tiff,,,,,,,8,5,53,4,,,,,,,,,,,,,163.73786259999906,,,,,,,,,,,,,,,,,,,,,,,,,,,,,,,,163.72763110000233,163.73786259999906,164.23152729999856,164.23156179999933,164.24465259999852,164.43140329999733,164.43143280000368,164.45164349999686,164.45164349999686,164.45164349999686,164.84763160000148,['z'],[0.3916721999994479],[None],,,,,,,,,,,,,,,,,,,,,,,,,,,,,,,,,,,,,,,,,,,,,,,,,,,,,,,,,,,,,,,,,,,,,,,,,,,,340808,001,2024-08-01_15h36.14.492,final,2024.1.5,None,2024-08-01 15h36.17.654286 +0530,
images/5n.tiff,images/5n.tiff,,,,,,,9,0,54,0,,,,,,,,,,,,,164.85757290000038,,,,,,,,,,,,,,,,,,,,,,,,,,,,,,,,164.84813389999908,164.85757290000038,165.3510823999968,165.35110890000942,165.36427640001057,165.55097090000345,165.55099970000447,165.56877480000549,165.56877480000549,165.56877480000549,165.97877909999806,['m'],[0.40280590001202654],[None],,,,,,,,,,,,,,,,,,,,,,,,,,,,,,,,,,,,,,,,,,,,,,,,,,,,,,,,,,,,,,,,,,,,,,,,,,,,340808,001,2024-08-01_15h36.14.492,final,2024.1.5,None,2024-08-01 15h36.17.654286 +0530,
images/10n.tiff,images/10n.tiff,,,,,,,9,1,55,2,,,,,,,,,,,,,165.99073170000338,,,,,,,,,,,,,,,,,,,,,,,,,,,,,,,,165.97944670000288,165.99073170000338,166.48404950000986,166.48407690000022,166.4971535000077,166.6840349999984,166.6840685000061,166.70145419999608,166.70145419999608,166.70145419999608,167.03095149999717,['z'],[0.31876340000599157],[None],,,,,,,,,,,,,,,,,,,,,,,,,,,,,,,,,,,,,,,,,,,,,,,,,,,,,,,,,,,,,,,,,,,,,,,,,,,,340808,001,2024-08-01_15h36.14.492,final,2024.1.5,None,2024-08-01 15h36.17.654286 +0530,
images/10n.tiff,images/10n.tiff,,,,,,,9,2,56,5,,,,,,,,,,,,,167.04359780000232,,,,,,,,,,,,,,,,,,,,,,,,,,,,,,,,167.03129640000407,167.04359780000232,167.53708280000137,167.5371135000023,167.5503774000099,167.73709619999863,167.73713140000473,167.7578033000027,167.7578033000027,167.7578033000027,168.07204280000587,['m'],[0.31013260000327136],[None],,,,,,,,,,,,,,,,,,,,,,,,,,,,,,,,,,,,,,,,,,,,,,,,,,,,,,,,,,,,,,,,,,,,,,,,,,,,340808,001,2024-08-01_15h36.14.492,final,2024.1.5,None,2024-08-01 15h36.17.654286 +0530,
images/5n.tiff,images/10n.tiff,,,,,,,9,3,57,1,,,,,,,,,,,,,168.08327790000476,,,,,,,,,,,,,,,,,,,,,,,,,,,,,,,,168.07302429999982,168.08327790000476,168.5765750999999,168.57660630000464,168.58986659999937,168.7767204999982,168.7767492999992,168.79709150000417,168.79709150000417,168.79709150000417,169.1507980000024,['z'],[0.3508473999972921],[None],,,,,,,,,,,,,,,,,,,,,,,,,,,,,,,,,,,,,,,,,,,,,,,,,,,,,,,,,,,,,,,,,,,,,,,,,,,,340808,001,2024-08-01_15h36.14.492,final,2024.1.5,None,2024-08-01 15h36.17.654286 +0530,
images/5n.tiff,images/5n.tiff,,,,,,,9,4,58,4,,,,,,,,,,,,,169.1630548999965,,,,,,,,,,,,,,,,,,,,,,,,,,,,,,,,169.15116000000853,169.1630548999965,169.65626119999797,169.65629530001024,169.66955099999905,169.85620629999903,169.85623699999996,169.87477510000463,169.87477510000463,169.87477510000463,170.25759720000497,['z'],[0.37715729999763425],[None],,,,,,,,,,,,,,,,,,,,,,,,,,,,,,,,,,,,,,,,,,,,,,,,,,,,,,,,,,,,,,,,,,,,,,,,,,,,340808,001,2024-08-01_15h36.14.492,final,2024.1.5,None,2024-08-01 15h36.17.654286 +0530,
images/10n.tiff,images/5n.tiff,,,,,,,9,5,59,3,,,,,,,,,,,,,170.2692939999979,,,,,,,,,,,,,,,,,,,,,,,,,,,,,,,,170.25874940000358,170.2692939999979,170.76268580000033,170.76272189999872,170.77565470000263,170.962815100007,170.96284770000784,170.98048290000588,170.98048290000588,170.98048290000588,171.53721029999724,['z'],[0.5509674000059022],[None],171.48220980000042,171.48220980000042,,,,,,,,,,,,,,,,,,,,,,,,,,,,,,,,,,,,,,,,,,,,,,,,,,,,,,,,,,,,,,,,,,,,,,,,,,340808,001,2024-08-01_15h36.14.492,final,2024.1.5,None,2024-08-01 15h36.17.654286 +0530,
,,,,,,,,,,,,,,,,,,,,,,,,,,,,,,,,,,,,,,,,,,,,,,,,,,,,,,,,,,,,,,,,,,,,,,,,171.53784050000831,171.54893119999906,171.54893119999906,174.31032770000456,space,2.7586386000039056,None,,,,,,,,,,,,,,,,,,,,,,,,,,,,,,,,,,,,,,,,,,,,,,,,,,,,,,,,,,,,,,,,,,,340808,001,2024-08-01_15h36.14.492,final,2024.1.5,None,2024-08-01 15h36.17.654286 +0530,
images/4n.tiff,images/4n.tiff,,,,,,,,,,,0,0,0,4,,,,,,,,,174.32739390000643,,,,,,,,,,,,,,,,,,,,,,,,,,,,,,,,,,,,,,,,,,,,,,,,,,,,,,,174.32561590000114,174.32739390000643,174.81460810000135,174.81468850000238,174.82781909999903,175.0144466000056,175.01447400001052,175.03306349999912,175.03306349999912,175.03306349999912,175.53396240000438,175.53396240000438,175.7622524000035,['z'],[0.7150971999944886],[None],,,,,,,,,,,,,,,,,,,,,,,,,,,,,,,,,,,,,,,,,,,,,,,,,,,340808,001,2024-08-01_15h36.14.492,final,2024.1.5,None,2024-08-01 15h36.17.654286 +0530,
images/18n.tiff,images/18n.tiff,,,,,,,,,,,0,1,1,5,,,,,,,,,175.77408699999796,,,,,,,,,,,,,,,,,,,,,,,,,,,,,,,,,,,,,,,,,,,,,,,,,,,,,,,175.76401729999634,175.77408699999796,176.26761019999685,176.26764620000904,176.28071150000324,176.4674270999967,176.46745779999765,176.48551460000454,176.48551460000454,176.48551460000454,176.9870687000075,176.9870687000075,178.3745254000096,['m'],[1.8783588999940548],[None],,,,,,,,,,,,,,,,,,,,,,,,,,,,,,,,,,,,,,,,,,,,,,,,,,,340808,001,2024-08-01_15h36.14.492,final,2024.1.5,None,2024-08-01 15h36.17.654286 +0530,
images/4n.tiff,images/18n.tiff,,,,,,,,,,,0,2,2,0,,,,,,,,,178.38665040000342,,,,,,,,,,,,,,,,,,,,,,,,,,,,,,,,,,,,,,,,,,,,,,,,,,,,,,,178.37567870000203,178.38665040000342,178.87997480000195,178.88000610000745,178.89316439999675,179.07993950000673,179.08002600001055,179.10270400000445,179.10270400000445,179.10270400000445,179.59959530000924,179.59959530000924,179.66766530000314,['z'],[0.5567650999873877],[None],,,,,,,,,,,,,,,,,,,,,,,,,,,,,,,,,,,,,,,,,,,,,,,,,,,340808,001,2024-08-01_15h36.14.492,final,2024.1.5,None,2024-08-01 15h36.17.654286 +0530,
images/18n.tiff,images/4n.tiff,,,,,,,,,,,0,3,3,2,,,,,,,,,179.67953160000616,,,,,,,,,,,,,,,,,,,,,,,,,,,,,,,,,,,,,,,,,,,,,,,,,,,,,,,179.66874580000876,179.67953160000616,180.17269859999942,180.17273170000408,180.1860852999962,180.3728728999995,180.37290750000102,180.39507220000087,180.39507220000087,180.39507220000087,,,180.8145005999977,['m'],[0.41638889999012463],[None],,,,,,,,,,,,,,,,,,,,,,,,,,,,,,,,,,,,,,,,,,,,,,,,,,,340808,001,2024-08-01_15h36.14.492,final,2024.1.5,None,2024-08-01 15h36.17.654286 +0530,
images/18n.tiff,images/18n.tiff,,,,,,,,,,,0,4,4,3,,,,,,,,,180.8257442000031,,,,,,,,,,,,,,,,,,,,,,,,,,,,,,,,,,,,,,,,,,,,,,,,,,,,,,,180.81550500000594,180.8257442000031,181.31922269999632,181.31925529999717,181.33220180000353,181.51903160000802,181.51906370000506,181.53794019999623,181.53794019999623,181.53794019999623,,,182.0004259999987,['m'],[0.4500010000047041],[None],,,,,,,,,,,,,,,,,,,,,,,,,,,,,,,,,,,,,,,,,,,,,,,,,,,340808,001,2024-08-01_15h36.14.492,final,2024.1.5,None,2024-08-01 15h36.17.654286 +0530,
images/4n.tiff,images/4n.tiff,,,,,,,,,,,0,5,5,1,,,,,,,,,182.01188710000133,,,,,,,,,,,,,,,,,,,,,,,,,,,,,,,,,,,,,,,,,,,,,,,,,,,,,,,182.00209480000194,182.01188710000133,182.50551820000692,182.50555319999694,182.518670999998,182.70535689999815,182.70538310000848,182.7242402999982,182.7242402999982,182.7242402999982,183.22505400000955,183.22505400000955,183.23998090000532,['m'],[0.5036349000001792],[None],,,,,,,,,,,,,,,,,,,,,,,,,,,,,,,,,,,,,,,,,,,,,,,,,,,340808,001,2024-08-01_15h36.14.492,final,2024.1.5,None,2024-08-01 15h36.17.654286 +0530,
images/18n.tiff,images/18n.tiff,,,,,,,,,,,1,0,6,5,,,,,,,,,183.25156309999875,,,,,,,,,,,,,,,,,,,,,,,,,,,,,,,,,,,,,,,,,,,,,,,,,,,,,,,183.24114369999734,183.25156309999875,183.74511289999646,183.74514369999815,183.7581402000069,183.94512560000294,183.94515939999837,183.96327780000865,183.96327780000865,183.96327780000865,,,184.41295030000038,['m'],[0.44007409999903757],[None],,,,,,,,,,,,,,,,,,,,,,,,,,,,,,,,,,,,,,,,,,,,,,,,,,,340808,001,2024-08-01_15h36.14.492,final,2024.1.5,None,2024-08-01 15h36.17.654286 +0530,
images/4n.tiff,images/4n.tiff,,,,,,,,,,,1,1,7,1,,,,,,,,,184.42464029999974,,,,,,,,,,,,,,,,,,,,,,,,,,,,,,,,,,,,,,,,,,,,,,,,,,,,,,,184.41407290000643,184.42464029999974,184.9179249000008,184.91795810000622,184.93096660000447,185.11788610000804,185.11791770000127,185.1360369000031,185.1360369000031,185.1360369000031,,,185.46580320000066,['z'],[0.31598179999855347],[None],,,,,,,,,,,,,,,,,,,,,,,,,,,,,,,,,,,,,,,,,,,,,,,,,,,340808,001,2024-08-01_15h36.14.492,final,2024.1.5,None,2024-08-01 15h36.17.654286 +0530,
images/18n.tiff,images/4n.tiff,,,,,,,,,,,1,2,8,2,,,,,,,,,185.47761529999843,,,,,,,,,,,,,,,,,,,,,,,,,,,,,,,,,,,,,,,,,,,,,,,,,,,,,,,185.4669181000063,185.47761529999843,185.97079780000786,185.9708893000061,185.9841099000041,186.17094409999845,186.17097990000912,186.18970790000458,186.18970790000458,186.18970790000458,,,186.62490680000337,['z'],[0.43034829999669455],[None],,,,,,,,,,,,,,,,,,,,,,,,,,,,,,,,,,,,,,,,,,,,,,,,,,,340808,001,2024-08-01_15h36.14.492,final,2024.1.5,None,2024-08-01 15h36.17.654286 +0530,
images/4n.tiff,images/4n.tiff,,,,,,,,,,,1,3,9,4,,,,,,,,,186.6372202000057,,,,,,,,,,,,,,,,,,,,,,,,,,,,,,,,,,,,,,,,,,,,,,,,,,,,,,,186.62540070000978,186.6372202000057,187.1304719000036,187.13049180000962,187.14379519999784,187.33048080001026,187.33051220000198,187.34834930000943,187.34834930000943,187.34834930000943,,,187.73198640000192,['z'],[0.3754213000065647],[None],,,,,,,,,,,,,,,,,,,,,,,,,,,,,,,,,,,,,,,,,,,,,,,,,,,340808,001,2024-08-01_15h36.14.492,final,2024.1.5,None,2024-08-01 15h36.17.654286 +0530,
images/4n.tiff,images/18n.tiff,,,,,,,,,,,1,4,10,0,,,,,,,,,187.74351420000312,,,,,,,,,,,,,,,,,,,,,,,,,,,,,,,,,,,,,,,,,,,,,,,,,,,,,,,187.73297110000567,187.74351420000312,188.23713750000752,188.23717590000888,188.25010560000374,188.43686630000593,188.43690020000213,188.4558687000099,188.4558687000099,188.4558687000099,,,188.86459379999724,['m'],[0.40387270000064746],[None],,,,,,,,,,,,,,,,,,,,,,,,,,,,,,,,,,,,,,,,,,,,,,,,,,,340808,001,2024-08-01_15h36.14.492,final,2024.1.5,None,2024-08-01 15h36.17.654286 +0530,
images/18n.tiff,images/18n.tiff,,,,,,,,,,,1,5,11,3,,,,,,,,,188.8763961000077,,,,,,,,,,,,,,,,,,,,,,,,,,,,,,,,,,,,,,,,,,,,,,,,,,,,,,,188.86546030000318,188.8763961000077,189.36979870000505,189.36982980000903,189.38306180000654,189.56968270000652,189.56971760001034,189.58839119999902,189.58839119999902,189.58839119999902,190.08939320000354,190.08939320000354,190.27734100000816,['m'],[0.6795648000115762],[None],,,,,,,,,,,,,,,,,,,,,,,,,,,,,,,,,,,,,,,,,,,,,,,,,,,340808,001,2024-08-01_15h36.14.492,final,2024.1.5,None,2024-08-01 15h36.17.654286 +0530,
images/4n.tiff,images/4n.tiff,,,,,,,,,,,2,0,12,4,,,,,,,,,190.28928379999707,,,,,,,,,,,,,,,,,,,,,,,,,,,,,,,,,,,,,,,,,,,,,,,,,,,,,,,190.27855489999638,190.28928379999707,190.78276660000847,190.78283690000535,190.79591169999912,190.98273920000065,190.9827718000015,191.00116149999667,191.00116149999667,191.00116149999667,191.50237780000316,191.50237780000316,191.54398030000448,['z'],[0.5384970000013709],[None],,,,,,,,,,,,,,,,,,,,,,,,,,,,,,,,,,,,,,,,,,,,,,,,,,,340808,001,2024-08-01_15h36.14.492,final,2024.1.5,None,2024-08-01 15h36.17.654286 +0530,
images/18n.tiff,images/18n.tiff,,,,,,,,,,,2,1,13,3,,,,,,,,,191.55563149999944,,,,,,,,,,,,,,,,,,,,,,,,,,,,,,,,,,,,,,,,,,,,,,,,,,,,,,,191.54495140000654,191.55563149999944,192.04878800000006,192.04882219999854,192.06218629999785,192.24882799999614,192.24886140000308,192.26897079999617,192.26897079999617,192.26897079999617,192.76839250000194,192.76839250000194,192.83656330000667,['m'],[0.5587107000028482],[None],,,,,,,,,,,,,,,,,,,,,,,,,,,,,,,,,,,,,,,,,,,,,,,,,,,340808,001,2024-08-01_15h36.14.492,final,2024.1.5,None,2024-08-01 15h36.17.654286 +0530,
images/18n.tiff,images/18n.tiff,,,,,,,,,,,2,2,14,5,,,,,,,,,192.8483075999975,,,,,,,,,,,,,,,,,,,,,,,,,,,,,,,,,,,,,,,,,,,,,,,,,,,,,,,192.83766479999758,192.8483075999975,193.34184580000874,193.34187669999665,193.35496740000963,193.54175540000142,193.54178890000912,193.5629270000063,193.5629270000063,193.5629270000063,,,193.98311739999917,['z'],[0.4083649999956833],[None],,,,,,,,,,,,,,,,,,,,,,,,,,,,,,,,,,,,,,,,,,,,,,,,,,,340808,001,2024-08-01_15h36.14.492,final,2024.1.5,None,2024-08-01 15h36.17.654286 +0530,
images/18n.tiff,images/4n.tiff,,,,,,,,,,,2,3,15,2,,,,,,,,,193.9949106999993,,,,,,,,,,,,,,,,,,,,,,,,,,,,,,,,,,,,,,,,,,,,,,,,,,,,,,,193.98409589999937,193.9949106999993,194.48800559999654,194.4880245000095,194.50157220000983,194.68796219999786,194.68799430000945,194.7070931000053,194.7070931000053,194.7070931000053,195.20761440000206,195.20761440000206,195.8356163999997,['m'],[1.1202828999958],[None],,,,,,,,,,,,,,,,,,,,,,,,,,,,,,,,,,,,,,,,,,,,,,,,,,,340808,001,2024-08-01_15h36.14.492,final,2024.1.5,None,2024-08-01 15h36.17.654286 +0530,
images/4n.tiff,images/4n.tiff,,,,,,,,,,,2,4,16,1,,,,,,,,,195.84734770000796,,,,,,,,,,,,,,,,,,,,,,,,,,,,,,,,,,,,,,,,,,,,,,,,,,,,,,,195.83677910000551,195.84734770000796,196.3407911000104,196.34082230000058,196.35407359999954,196.54104130000633,196.5410741000087,196.56165709999914,196.56165709999914,196.56165709999914,197.06039779999992,197.06039779999992,197.15518180000072,['z'],[0.5864517000009073],[None],,,,,,,,,,,,,,,,,,,,,,,,,,,,,,,,,,,,,,,,,,,,,,,,,,,340808,001,2024-08-01_15h36.14.492,final,2024.1.5,None,2024-08-01 15h36.17.654286 +0530,
images/4n.tiff,images/18n.tiff,,,,,,,,,,,2,5,17,0,,,,,,,,,197.16693180000584,,,,,,,,,,,,,,,,,,,,,,,,,,,,,,,,,,,,,,,,,,,,,,,,,,,,,,,197.15609479999694,197.16693180000584,197.6604432000022,197.6604740000039,197.67362060000596,197.86051929999667,197.86055240000132,197.8803237000102,197.8803237000102,197.8803237000102,198.38006380001025,198.38006380001025,199.9144307000097,['m'],[2.027486899998621],[None],,,,,,,,,,,,,,,,,,,,,,,,,,,,,,,,,,,,,,,,,,,,,,,,,,,340808,001,2024-08-01_15h36.14.492,final,2024.1.5,None,2024-08-01 15h36.17.654286 +0530,
images/18n.tiff,images/4n.tiff,,,,,,,,,,,3,0,18,2,,,,,,,,,199.92609360000642,,,,,,,,,,,,,,,,,,,,,,,,,,,,,,,,,,,,,,,,,,,,,,,,,,,,,,,199.91561880000518,199.92609360000642,200.41951849999896,200.41955180000514,200.43271770000865,200.6195977000025,200.61963190000097,200.63792449999892,200.63792449999892,200.63792449999892,201.13915509999788,201.13915509999788,202.76706050000212,['m'],[2.117484800008242],[None],,,,,,,,,,,,,,,,,,,,,,,,,,,,,,,,,,,,,,,,,,,,,,,,,,,340808,001,2024-08-01_15h36.14.492,final,2024.1.5,None,2024-08-01 15h36.17.654286 +0530,
images/18n.tiff,images/18n.tiff,,,,,,,,,,,3,1,19,3,,,,,,,,,202.7786114000046,,,,,,,,,,,,,,,,,,,,,,,,,,,,,,,,,,,,,,,,,,,,,,,,,,,,,,,202.76816040000995,202.7786114000046,203.2719497000071,203.27198150000186,203.2850264000008,203.4721358000097,203.47217079999973,203.49124000000302,203.49124000000302,203.49124000000302,203.99158570000145,203.99158570000145,204.85981400001037,['z'],[1.360234699997818],[None],,,,,,,,,,,,,,,,,,,,,,,,,,,,,,,,,,,,,,,,,,,,,,,,,,,340808,001,2024-08-01_15h36.14.492,final,2024.1.5,None,2024-08-01 15h36.17.654286 +0530,
images/4n.tiff,images/4n.tiff,,,,,,,,,,,3,2,20,1,,,,,,,,,204.8712155000103,,,,,,,,,,,,,,,,,,,,,,,,,,,,,,,,,,,,,,,,,,,,,,,,,,,,,,,204.86089470000297,204.8712155000103,205.36453550000442,205.3645669999969,205.37774690000515,205.56463429999712,205.5646681000071,205.5836577000009,205.5836577000009,205.5836577000009,206.0841064999986,206.0841064999986,207.24592650000704,['z'],[1.6596690000005765],[None],,,,,,,,,,,,,,,,,,,,,,,,,,,,,,,,,,,,,,,,,,,,,,,,,,,340808,001,2024-08-01_15h36.14.492,final,2024.1.5,None,2024-08-01 15h36.17.654286 +0530,
images/4n.tiff,images/4n.tiff,,,,,,,,,,,3,3,21,4,,,,,,,,,207.25716870000178,,,,,,,,,,,,,,,,,,,,,,,,,,,,,,,,,,,,,,,,,,,,,,,,,,,,,,,207.24710039999627,207.25716870000178,207.7504537000059,207.75048650000826,207.76365090000036,207.95054030000756,207.95057690000976,207.97087200000533,207.97087200000533,207.97087200000533,208.47005699999863,208.47005699999863,209.00476330000674,['z'],[1.0251089999946998],[None],,,,,,,,,,,,,,,,,,,,,,,,,,,,,,,,,,,,,,,,,,,,,,,,,,,340808,001,2024-08-01_15h36.14.492,final,2024.1.5,None,2024-08-01 15h36.17.654286 +0530,
images/18n.tiff,images/18n.tiff,,,,,,,,,,,3,4,22,5,,,,,,,,,209.01652079999621,,,,,,,,,,,,,,,,,,,,,,,,,,,,,,,,,,,,,,,,,,,,,,,,,,,,,,,209.0059193000052,209.01652079999621,209.50997440000356,209.51000760000898,209.5231114000053,209.7098171999969,209.70984890000545,209.7297741000075,209.7297741000075,209.7297741000075,210.22953140000755,210.22953140000755,210.77714320000086,['z'],[1.033539700001711],[None],,,,,,,,,,,,,,,,,,,,,,,,,,,,,,,,,,,,,,,,,,,,,,,,,,,340808,001,2024-08-01_15h36.14.492,final,2024.1.5,None,2024-08-01 15h36.17.654286 +0530,
images/4n.tiff,images/18n.tiff,,,,,,,,,,,3,5,23,0,,,,,,,,,210.7892598000035,,,,,,,,,,,,,,,,,,,,,,,,,,,,,,,,,,,,,,,,,,,,,,,,,,,,,,,210.77832189999754,210.7892598000035,211.2825096000015,211.28253219999897,211.2958318000019,211.48239540000213,211.48242929999833,211.50166080000054,211.50166080000054,211.50166080000054,212.00212950000423,212.00212950000423,212.4707167000015,['m'],[0.9663903000036953],[None],,,,,,,,,,,,,,,,,,,,,,,,,,,,,,,,,,,,,,,,,,,,,,,,,,,340808,001,2024-08-01_15h36.14.492,final,2024.1.5,None,2024-08-01 15h36.17.654286 +0530,
images/18n.tiff,images/4n.tiff,,,,,,,,,,,4,0,24,2,,,,,,,,,212.4820313000091,,,,,,,,,,,,,,,,,,,,,,,,,,,,,,,,,,,,,,,,,,,,,,,,,,,,,,,212.47184650000418,212.4820313000091,212.9754130000074,212.97544590001053,212.98855789999652,213.1753779999999,213.17540730000474,213.19514860000345,213.19514860000345,213.19514860000345,213.6950622000004,213.6950622000004,214.45624120000866,['m'],[1.2487982000020565],[None],,,,,,,,,,,,,,,,,,,,,,,,,,,,,,,,,,,,,,,,,,,,,,,,,,,340808,001,2024-08-01_15h36.14.492,final,2024.1.5,None,2024-08-01 15h36.17.654286 +0530,
images/4n.tiff,images/4n.tiff,,,,,,,,,,,4,1,25,4,,,,,,,,,214.46802369999932,,,,,,,,,,,,,,,,,,,,,,,,,,,,,,,,,,,,,,,,,,,,,,,,,,,,,,,214.4573692999984,214.46802369999932,214.96138540000538,214.96141750000243,214.97458920000645,215.16128640000534,215.16132020000077,215.18078350000724,215.18078350000724,215.18078350000724,215.68081150000216,215.68081150000216,215.94934649999777,['z'],[0.7591006999864476],[None],,,,,,,,,,,,,,,,,,,,,,,,,,,,,,,,,,,,,,,,,,,,,,,,,,,340808,001,2024-08-01_15h36.14.492,final,2024.1.5,None,2024-08-01 15h36.17.654286 +0530,
images/18n.tiff,images/18n.tiff,,,,,,,,,,,4,2,26,5,,,,,,,,,215.96091429999797,,,,,,,,,,,,,,,,,,,,,,,,,,,,,,,,,,,,,,,,,,,,,,,,,,,,,,,215.95047730000806,215.96091429999797,216.45424289999937,216.45427550000022,216.4674146000034,216.654254699999,216.6542868999968,216.6742319000041,216.6742319000041,216.6742319000041,217.17384760000277,217.17384760000277,217.88134829999763,['m'],[1.202045799989719],[None],,,,,,,,,,,,,,,,,,,,,,,,,,,,,,,,,,,,,,,,,,,,,,,,,,,340808,001,2024-08-01_15h36.14.492,final,2024.1.5,None,2024-08-01 15h36.17.654286 +0530,
images/18n.tiff,images/18n.tiff,,,,,,,,,,,4,3,27,3,,,,,,,,,217.89356620000035,,,,,,,,,,,,,,,,,,,,,,,,,,,,,,,,,,,,,,,,,,,,,,,,,,,,,,,217.88270090000879,217.89356620000035,218.38707350000914,218.38710320000246,218.40005009999732,218.58697070000926,218.58700300000783,218.60616150000715,218.60616150000715,218.60616150000715,219.1066004000022,219.1066004000022,219.52155600000697,['z'],[0.9097126999986358],[None],,,,,,,,,,,,,,,,,,,,,,,,,,,,,,,,,,,,,,,,,,,,,,,,,,,340808,001,2024-08-01_15h36.14.492,final,2024.1.5,None,2024-08-01 15h36.17.654286 +0530,
images/4n.tiff,images/18n.tiff,,,,,,,,,,,4,4,28,0,,,,,,,,,219.5331664999976,,,,,,,,,,,,,,,,,,,,,,,,,,,,,,,,,,,,,,,,,,,,,,,,,,,,,,,219.52258710000024,219.5331664999976,220.02638570001,220.02641869999934,220.03949910000665,220.2263471000042,220.22637950000353,220.24447150000196,220.24447150000196,220.24447150000196,220.74601480001002,220.74601480001002,221.12053600000218,['m'],[0.8634929999971064],[None],,,,,,,,,,,,,,,,,,,,,,,,,,,,,,,,,,,,,,,,,,,,,,,,,,,340808,001,2024-08-01_15h36.14.492,final,2024.1.5,None,2024-08-01 15h36.17.654286 +0530,
images/4n.tiff,images/4n.tiff,,,,,,,,,,,4,5,29,1,,,,,,,,,221.13262410000607,,,,,,,,,,,,,,,,,,,,,,,,,,,,,,,,,,,,,,,,,,,,,,,,,,,,,,,221.1216473000095,221.13262410000607,221.62597670000105,221.62601750000613,221.63906339999812,221.8258394000004,221.82586989999982,221.84635730000446,221.84635730000446,221.84635730000446,222.34553630001028,222.34553630001028,222.77413469999738,['z'],[0.925074400001904],[None],,,,,,,,,,,,,,,,,,,,,,,,,,,,,,,,,,,,,,,,,,,,,,,,,,,340808,001,2024-08-01_15h36.14.492,final,2024.1.5,None,2024-08-01 15h36.17.654286 +0530,
images/4n.tiff,images/4n.tiff,,,,,,,,,,,5,0,30,1,,,,,,,,,222.7853513000009,,,,,,,,,,,,,,,,,,,,,,,,,,,,,,,,,,,,,,,,,,,,,,,,,,,,,,,222.77527230000123,222.7853513000009,223.27865269999893,223.27873259999615,223.2918353999994,223.47851349999837,223.4785428000032,223.4977813000005,223.4977813000005,223.4977813000005,223.99827270000242,223.99827270000242,224.43955009999627,['z'],[0.9298696999903768],[None],,,,,,,,,,,,,,,,,,,,,,,,,,,,,,,,,,,,,,,,,,,,,,,,,,,340808,001,2024-08-01_15h36.14.492,final,2024.1.5,None,2024-08-01 15h36.17.654286 +0530,
images/18n.tiff,images/18n.tiff,,,,,,,,,,,5,1,31,5,,,,,,,,,224.45147610000276,,,,,,,,,,,,,,,,,,,,,,,,,,,,,,,,,,,,,,,,,,,,,,,,,,,,,,,224.44074980000732,224.45147610000276,224.94469790000585,224.94473090000974,224.95804290000524,225.14469709999685,225.14472759999626,225.16329350000888,225.16329350000888,225.16329350000888,225.66439750000427,225.66439750000427,226.11911569999938,['z'],[0.9445374999922933],[None],,,,,,,,,,,,,,,,,,,,,,,,,,,,,,,,,,,,,,,,,,,,,,,,,,,340808,001,2024-08-01_15h36.14.492,final,2024.1.5,None,2024-08-01 15h36.17.654286 +0530,
images/18n.tiff,images/18n.tiff,,,,,,,,,,,5,2,32,3,,,,,,,,,226.13097290000587,,,,,,,,,,,,,,,,,,,,,,,,,,,,,,,,,,,,,,,,,,,,,,,,,,,,,,,226.12028210000426,226.13097290000587,226.62420679999923,226.62424140000076,226.63738650000596,226.8242256000085,226.8242600000085,226.8440016000095,226.8440016000095,226.8440016000095,227.34383640000306,227.34383640000306,227.79845410000416,['z'],[0.9438373000011779],[None],,,,,,,,,,,,,,,,,,,,,,,,,,,,,,,,,,,,,,,,,,,,,,,,,,,340808,001,2024-08-01_15h36.14.492,final,2024.1.5,None,2024-08-01 15h36.17.654286 +0530,
images/4n.tiff,images/18n.tiff,,,,,,,,,,,5,3,33,0,,,,,,,,,227.81038120000449,,,,,,,,,,,,,,,,,,,,,,,,,,,,,,,,,,,,,,,,,,,,,,,,,,,,,,,227.79961680000997,227.81038120000449,228.30360660000588,228.30364080000436,228.31694200000493,228.50350869999966,228.50353830000677,228.52141790000314,228.52141790000314,228.52141790000314,229.02310869999928,229.02310869999928,229.31846580001002,['m'],[0.7942828000086593],[None],,,,,,,,,,,,,,,,,,,,,,,,,,,,,,,,,,,,,,,,,,,,,,,,,,,340808,001,2024-08-01_15h36.14.492,final,2024.1.5,None,2024-08-01 15h36.17.654286 +0530,
images/18n.tiff,images/4n.tiff,,,,,,,,,,,5,4,34,2,,,,,,,,,229.3297903000057,,,,,,,,,,,,,,,,,,,,,,,,,,,,,,,,,,,,,,,,,,,,,,,,,,,,,,,229.3195740000083,229.3297903000057,229.82301580000785,229.82304820000718,229.83640690000902,230.02304960000038,230.02308530001028,230.0413533999963,230.0413533999963,230.0413533999963,230.54255500000727,230.54255500000727,231.05092170000717,['z'],[1.001834200011217],[None],,,,,,,,,,,,,,,,,,,,,,,,,,,,,,,,,,,,,,,,,,,,,,,,,,,340808,001,2024-08-01_15h36.14.492,final,2024.1.5,None,2024-08-01 15h36.17.654286 +0530,
images/4n.tiff,images/4n.tiff,,,,,,,,,,,5,5,35,4,,,,,,,,,231.0623642999999,,,,,,,,,,,,,,,,,,,,,,,,,,,,,,,,,,,,,,,,,,,,,,,,,,,,,,,231.05191650000052,231.0623642999999,231.5559030000004,231.55593590000353,231.56910659999994,231.75582069999655,231.75585319999664,231.77449500000512,231.77449500000512,231.77449500000512,232.2755138000066,232.2755138000066,232.71784890000708,['z'],[0.9410954000049969],[None],,,,,,,,,,,,,,,,,,,,,,,,,,,,,,,,,,,,,,,,,,,,,,,,,,,340808,001,2024-08-01_15h36.14.492,final,2024.1.5,None,2024-08-01 15h36.17.654286 +0530,
images/18n.tiff,images/18n.tiff,,,,,,,,,,,6,0,36,5,,,,,,,,,232.7285325999983,,,,,,,,,,,,,,,,,,,,,,,,,,,,,,,,,,,,,,,,,,,,,,,,,,,,,,,232.71928540000226,232.7285325999983,233.22206139999616,233.2220909000025,233.2351553000044,233.42199860000983,233.4220282000024,233.44151460001012,233.44151460001012,233.44151460001012,233.94166520000726,233.94166520000726,234.0376266000094,['m'],[0.5940828000020701],[None],,,,,,,,,,,,,,,,,,,,,,,,,,,,,,,,,,,,,,,,,,,,,,,,,,,340808,001,2024-08-01_15h36.14.492,final,2024.1.5,None,2024-08-01 15h36.17.654286 +0530,
images/4n.tiff,images/18n.tiff,,,,,,,,,,,6,1,37,0,,,,,,,,,234.04831340000965,,,,,,,,,,,,,,,,,,,,,,,,,,,,,,,,,,,,,,,,,,,,,,,,,,,,,,,234.03872989999945,234.04831340000965,234.54141170000366,234.54144559999986,234.5547920000099,234.74134870000125,234.7413818000059,234.75939259999723,234.75939259999723,234.75939259999723,235.26113980000082,235.26113980000082,235.86291730000812,['m'],[1.0919068999937735],[None],,,,,,,,,,,,,,,,,,,,,,,,,,,,,,,,,,,,,,,,,,,,,,,,,,,340808,001,2024-08-01_15h36.14.492,final,2024.1.5,None,2024-08-01 15h36.17.654286 +0530,
images/18n.tiff,images/4n.tiff,,,,,,,,,,,6,2,38,2,,,,,,,,,235.8743572000094,,,,,,,,,,,,,,,,,,,,,,,,,,,,,,,,,,,,,,,,,,,,,,,,,,,,,,,235.86400240000512,235.8743572000094,236.3678293999983,236.36787170000025,236.38062760001048,236.56759750000492,236.56762519999756,236.58496180000657,236.58496180000657,236.58496180000657,237.08726420000312,237.08726420000312,237.44884420000017,['m'],[0.8588789000059478],[None],,,,,,,,,,,,,,,,,,,,,,,,,,,,,,,,,,,,,,,,,,,,,,,,,,,340808,001,2024-08-01_15h36.14.492,final,2024.1.5,None,2024-08-01 15h36.17.654286 +0530,
images/18n.tiff,images/18n.tiff,,,,,,,,,,,6,3,39,3,,,,,,,,,237.4602692000044,,,,,,,,,,,,,,,,,,,,,,,,,,,,,,,,,,,,,,,,,,,,,,,,,,,,,,,237.44991850000224,237.4602692000044,237.9539555000083,237.9539894000045,237.96711710000818,238.15364899999986,238.15367250000418,238.1703525000048,238.1703525000048,238.1703525000048,238.67355320000206,238.67355320000206,239.54106560000218,['z'],[1.3612090999959037],[None],,,,,,,,,,,,,,,,,,,,,,,,,,,,,,,,,,,,,,,,,,,,,,,,,,,340808,001,2024-08-01_15h36.14.492,final,2024.1.5,None,2024-08-01 15h36.17.654286 +0530,
images/4n.tiff,images/4n.tiff,,,,,,,,,,,6,4,40,1,,,,,,,,,239.55311360000633,,,,,,,,,,,,,,,,,,,,,,,,,,,,,,,,,,,,,,,,,,,,,,,,,,,,,,,239.5423993000004,239.55311360000633,240.04642030000105,240.04645400001027,240.0594229999988,240.24621990000014,240.2462416000053,240.2634270999988,240.2634270999988,240.2634270999988,240.76596190000419,240.76596190000419,241.32770310000342,['z'],[1.0597438999975566],[None],,,,,,,,,,,,,,,,,,,,,,,,,,,,,,,,,,,,,,,,,,,,,,,,,,,340808,001,2024-08-01_15h36.14.492,final,2024.1.5,None,2024-08-01 15h36.17.654286 +0530,
images/4n.tiff,images/4n.tiff,,,,,,,,,,,6,5,41,4,,,,,,,,,241.33903010000358,,,,,,,,,,,,,,,,,,,,,,,,,,,,,,,,,,,,,,,,,,,,,,,,,,,,,,,241.328714400006,241.33903010000358,241.83223060000455,241.8322455000016,241.84552709999844,242.0325204999972,242.0325559000048,242.05190050000965,242.05190050000965,242.05190050000965,242.55220479999844,242.55220479999844,242.93995990000258,['z'],[0.8802657999913208],[None],,,,,,,,,,,,,,,,,,,,,,,,,,,,,,,,,,,,,,,,,,,,,,,,,,,340808,001,2024-08-01_15h36.14.492,final,2024.1.5,None,2024-08-01 15h36.17.654286 +0530,
images/18n.tiff,images/18n.tiff,,,,,,,,,,,7,0,42,3,,,,,,,,,242.95206789999793,,,,,,,,,,,,,,,,,,,,,,,,,,,,,,,,,,,,,,,,,,,,,,,,,,,,,,,242.94109940000635,242.95206789999793,243.4455231000029,243.44556069999817,243.45839960000012,243.64527320000343,243.64530350000132,243.66421100001025,243.66421100001025,243.66421100001025,244.16503699999885,244.16503699999885,244.4316448000027,['m'],[0.7631678000034299],[None],,,,,,,,,,,,,,,,,,,,,,,,,,,,,,,,,,,,,,,,,,,,,,,,,,,340808,001,2024-08-01_15h36.14.492,final,2024.1.5,None,2024-08-01 15h36.17.654286 +0530,
images/4n.tiff,images/18n.tiff,,,,,,,,,,,7,1,43,0,,,,,,,,,244.44455949999974,,,,,,,,,,,,,,,,,,,,,,,,,,,,,,,,,,,,,,,,,,,,,,,,,,,,,,,244.43198310000298,244.44455949999974,244.9382731000078,244.93831100000534,244.9514371999976,245.13781220000237,245.1378335000045,245.15696920000482,245.15696920000482,245.15696920000482,245.65764400000626,245.65764400000626,246.19234010000946,['m'],[1.02224569999089],[None],,,,,,,,,,,,,,,,,,,,,,,,,,,,,,,,,,,,,,,,,,,,,,,,,,,340808,001,2024-08-01_15h36.14.492,final,2024.1.5,None,2024-08-01 15h36.17.654286 +0530,
images/4n.tiff,images/4n.tiff,,,,,,,,,,,7,2,44,1,,,,,,,,,246.20414270000765,,,,,,,,,,,,,,,,,,,,,,,,,,,,,,,,,,,,,,,,,,,,,,,,,,,,,,,246.1933616000024,246.20414270000765,246.69755170001008,246.69758730000467,246.7108343,246.89738789999683,246.89741800000775,246.91868030000478,246.91868030000478,246.91868030000478,247.4170146999968,247.4170146999968,247.88635230000364,['z'],[0.9652436000033049],[None],,,,,,,,,,,,,,,,,,,,,,,,,,,,,,,,,,,,,,,,,,,,,,,,,,,340808,001,2024-08-01_15h36.14.492,final,2024.1.5,None,2024-08-01 15h36.17.654286 +0530,
images/18n.tiff,images/4n.tiff,,,,,,,,,,,7,3,45,2,,,,,,,,,247.89679300000716,,,,,,,,,,,,,,,,,,,,,,,,,,,,,,,,,,,,,,,,,,,,,,,,,,,,,,,247.88728880000417,247.89679300000716,248.39041089999955,248.39044309999736,248.40354559999832,248.59023519999755,248.59026730000915,248.61053400000674,248.61053400000674,248.61053400000674,249.10987880000903,249.10987880000903,249.52464360000158,['m'],[0.9053703999961726],[None],,,,,,,,,,,,,,,,,,,,,,,,,,,,,,,,,,,,,,,,,,,,,,,,,,,340808,001,2024-08-01_15h36.14.492,final,2024.1.5,None,2024-08-01 15h36.17.654286 +0530,
images/4n.tiff,images/4n.tiff,,,,,,,,,,,7,4,46,4,,,,,,,,,249.5363520999963,,,,,,,,,,,,,,,,,,,,,,,,,,,,,,,,,,,,,,,,,,,,,,,,,,,,,,,249.52570399999968,249.5363520999963,250.0298225000006,250.0298555000045,250.0430641999992,250.22974270000122,250.2297741000075,250.25009980000323,250.25009980000323,250.25009980000323,250.74940899999638,250.74940899999638,251.13746399999945,['z'],[0.8732756000099471],[None],,,,,,,,,,,,,,,,,,,,,,,,,,,,,,,,,,,,,,,,,,,,,,,,,,,340808,001,2024-08-01_15h36.14.492,final,2024.1.5,None,2024-08-01 15h36.17.654286 +0530,
images/18n.tiff,images/18n.tiff,,,,,,,,,,,7,5,47,5,,,,,,,,,251.14934709999943,,,,,,,,,,,,,,,,,,,,,,,,,,,,,,,,,,,,,,,,,,,,,,,,,,,,,,,251.13858400000026,251.14934709999943,251.6426683000027,251.64270150000812,251.65566129999934,251.84260740000173,251.84264080000867,251.8639669999975,251.8639669999975,251.8639669999975,252.36216710000008,252.36216710000008,252.76350719999755,['m'],[0.8916847999935271],[None],,,,,,,,,,,,,,,,,,,,,,,,,,,,,,,,,,,,,,,,,,,,,,,,,,,340808,001,2024-08-01_15h36.14.492,final,2024.1.5,None,2024-08-01 15h36.17.654286 +0530,
images/4n.tiff,images/4n.tiff,,,,,,,,,,,8,0,48,4,,,,,,,,,252.77531150000868,,,,,,,,,,,,,,,,,,,,,,,,,,,,,,,,,,,,,,,,,,,,,,,,,,,,,,,252.7646276000014,252.77531150000868,253.26868470000045,253.26871440000832,253.28192140000465,253.4687263000087,253.46875549999822,253.48816480000096,253.48816480000096,253.48816480000096,253.9883575999993,253.9883575999993,254.30938289999904,['z'],[0.819275200003176],[None],,,,,,,,,,,,,,,,,,,,,,,,,,,,,,,,,,,,,,,,,,,,,,,,,,,340808,001,2024-08-01_15h36.14.492,final,2024.1.5,None,2024-08-01 15h36.17.654286 +0530,
images/4n.tiff,images/18n.tiff,,,,,,,,,,,8,1,49,0,,,,,,,,,254.3213892000058,,,,,,,,,,,,,,,,,,,,,,,,,,,,,,,,,,,,,,,,,,,,,,,,,,,,,,,254.30983969999943,254.3213892000058,254.81442850000167,254.81443870000658,254.82787839999946,255.01449210000283,255.0145033000008,255.02919370000018,255.02919370000018,255.02919370000018,255.5341904000088,255.5341904000088,255.97433720000845,['m'],[0.9423404999979539],[None],,,,,,,,,,,,,,,,,,,,,,,,,,,,,,,,,,,,,,,,,,,,,,,,,,,340808,001,2024-08-01_15h36.14.492,final,2024.1.5,None,2024-08-01 15h36.17.654286 +0530,
images/18n.tiff,images/4n.tiff,,,,,,,,,,,8,2,50,2,,,,,,,,,255.98738890000095,,,,,,,,,,,,,,,,,,,,,,,,,,,,,,,,,,,,,,,,,,,,,,,,,,,,,,,255.97461810000823,255.98738890000095,256.4811982000101,256.48122590000276,256.49411970000074,256.68116870000085,256.6812038000062,256.6989755000104,256.6989755000104,256.6989755000104,257.2007842000021,257.2007842000021,258.0416885000013,['m'],[1.3363209000090137],[None],,,,,,,,,,,,,,,,,,,,,,,,,,,,,,,,,,,,,,,,,,,,,,,,,,,340808,001,2024-08-01_15h36.14.492,final,2024.1.5,None,2024-08-01 15h36.17.654286 +0530,
images/18n.tiff,images/18n.tiff,,,,,,,,,,,8,3,51,3,,,,,,,,,258.05348400000366,,,,,,,,,,,,,,,,,,,,,,,,,,,,,,,,,,,,,,,,,,,,,,,,,,,,,,,258.04277379999985,258.05348400000366,258.5470651000069,258.54709960000764,258.5601067000098,258.74669559999893,258.74672609999834,258.7688329000084,258.7688329000084,258.7688329000084,259.2665494999965,259.2665494999965,259.8946946000069,['z'],[1.1225873999937903],[None],,,,,,,,,,,,,,,,,,,,,,,,,,,,,,,,,,,,,,,,,,,,,,,,,,,340808,001,2024-08-01_15h36.14.492,final,2024.1.5,None,2024-08-01 15h36.17.654286 +0530,
images/18n.tiff,images/18n.tiff,,,,,,,,,,,8,4,52,5,,,,,,,,,259.9063346000039,,,,,,,,,,,,,,,,,,,,,,,,,,,,,,,,,,,,,,,,,,,,,,,,,,,,,,,259.89580680000654,259.9063346000039,260.39966340000683,260.39969669999846,260.41269759999705,260.5997248000058,260.5997577000089,260.61951570000383,260.61951570000383,260.61951570000383,261.11941140001,261.11941140001,262.27999080000154,['z'],[1.6561293999984628],[None],,,,,,,,,,,,,,,,,,,,,,,,,,,,,,,,,,,,,,,,,,,,,,,,,,,340808,001,2024-08-01_15h36.14.492,final,2024.1.5,None,2024-08-01 15h36.17.654286 +0530,
images/4n.tiff,images/4n.tiff,,,,,,,,,,,8,5,53,1,,,,,,,,,262.292139600002,,,,,,,,,,,,,,,,,,,,,,,,,,,,,,,,,,,,,,,,,,,,,,,,,,,,,,,262.2808603000012,262.292139600002,262.7855186000088,262.7855508000066,262.7987278000073,262.98550560000876,262.9855368999997,263.00486120001005,263.00486120001005,263.00486120001005,263.50520840000536,263.50520840000536,263.8797379000025,['z'],[0.8624254000023939],[None],,,,,,,,,,,,,,,,,,,,,,,,,,,,,,,,,,,,,,,,,,,,,,,,,,,340808,001,2024-08-01_15h36.14.492,final,2024.1.5,None,2024-08-01 15h36.17.654286 +0530,
images/18n.tiff,images/18n.tiff,,,,,,,,,,,9,0,54,3,,,,,,,,,263.8916648000013,,,,,,,,,,,,,,,,,,,,,,,,,,,,,,,,,,,,,,,,,,,,,,,,,,,,,,,263.8808788000024,263.8916648000013,264.38499430000957,264.38502660000813,264.398185500002,264.58509560000675,264.5851262000069,264.6086270000087,264.6086270000087,264.6086270000087,265.10461130000476,265.10461130000476,266.2244192000071,['z'],[1.6111870000022464],[None],,,,,,,,,,,,,,,,,,,,,,,,,,,,,,,,,,,,,,,,,,,,,,,,,,,340808,001,2024-08-01_15h36.14.492,final,2024.1.5,None,2024-08-01 15h36.17.654286 +0530,
images/4n.tiff,images/4n.tiff,,,,,,,,,,,9,1,55,4,,,,,,,,,266.2374423000001,,,,,,,,,,,,,,,,,,,,,,,,,,,,,,,,,,,,,,,,,,,,,,,,,,,,,,,266.22472270000435,266.2374423000001,266.7308023000078,266.7308372999978,266.7440640999994,266.9307839999965,266.9308161000081,266.9512299000053,266.9512299000053,266.9512299000053,267.4502188000042,267.4502188000042,267.7453430000023,['z'],[0.7799899999954505],[None],,,,,,,,,,,,,,,,,,,,,,,,,,,,,,,,,,,,,,,,,,,,,,,,,,,340808,001,2024-08-01_15h36.14.492,final,2024.1.5,None,2024-08-01 15h36.17.654286 +0530,
images/4n.tiff,images/18n.tiff,,,,,,,,,,,9,2,56,0,,,,,,,,,267.75702089999686,,,,,,,,,,,,,,,,,,,,,,,,,,,,,,,,,,,,,,,,,,,,,,,,,,,,,,,267.7464911999996,267.75702089999686,268.2504353999975,268.25047070000437,268.26371520000976,268.4505224000022,268.4505594000075,268.4689236999984,268.4689236999984,268.4689236999984,268.9699716000032,268.9699716000032,269.27837810000347,['m'],[0.7986421999958111],[None],,,,,,,,,,,,,,,,,,,,,,,,,,,,,,,,,,,,,,,,,,,,,,,,,,,340808,001,2024-08-01_15h36.14.492,final,2024.1.5,None,2024-08-01 15h36.17.654286 +0530,
images/18n.tiff,images/4n.tiff,,,,,,,,,,,9,3,57,2,,,,,,,,,269.2896938000049,,,,,,,,,,,,,,,,,,,,,,,,,,,,,,,,,,,,,,,,,,,,,,,,,,,,,,,269.27950659999624,269.2896938000049,269.7833205000061,269.78336470000795,269.79647000000114,269.9834222000063,269.9834615,270.001568599997,270.001568599997,270.001568599997,270.50288960000034,270.50288960000034,271.3044794000016,['m'],[1.2903048000007402],[None],,,,,,,,,,,,,,,,,,,,,,,,,,,,,,,,,,,,,,,,,,,,,,,,,,,340808,001,2024-08-01_15h36.14.492,final,2024.1.5,None,2024-08-01 15h36.17.654286 +0530,
images/18n.tiff,images/18n.tiff,,,,,,,,,,,9,4,58,5,,,,,,,,,271.3158414000063,,,,,,,,,,,,,,,,,,,,,,,,,,,,,,,,,,,,,,,,,,,,,,,,,,,,,,,271.3055019000021,271.3158414000063,271.80917210000916,271.809219200004,271.8224756999989,272.0091010000033,272.00913279999804,272.02828020000015,272.02828020000015,272.02828020000015,272.52877720000106,272.52877720000106,273.0636380000069,['z'],[1.031609900004696],[None],,,,,,,,,,,,,,,,,,,,,,,,,,,,,,,,,,,,,,,,,,,,,,,,,,,340808,001,2024-08-01_15h36.14.492,final,2024.1.5,None,2024-08-01 15h36.17.654286 +0530,
images/4n.tiff,images/4n.tiff,,,,,,,,,,,9,5,59,1,,,,,,,,,273.07537800000864,,,,,,,,,,,,,,,,,,,,,,,,,,,,,,,,,,,,,,,,,,,,,,,,,,,,,,,273.06468969999696,273.07537800000864,273.56876960000955,273.56880100000126,273.5818972999987,273.76845650000905,273.76848090000567,273.7850497000036,273.7850497000036,273.7850497000036,274.2881291000085,274.2881291000085,274.8226142000058,['z'],[1.0341645000007702],[None],,,,,,,,,,,,,,,,,,,,,,,,,,,,,,,,,,,,,,,,,,,,,,,,,,,340808,001,2024-08-01_15h36.14.492,final,2024.1.5,None,2024-08-01 15h36.17.654286 +0530,
,,,,,,,,,,,,,,,,,,,,,,,,,,,,,,,,,,,,,,,,,,,,,,,,,,,,,,,,,,,,,,,,,,,,,,,,,,,,,,,,,,,,,,,,,,,,,,,274.82314380000753,274.8348316000047,274.8348316000047,276.04920530000527,space,1.2088150000054156,None,,,,,,,,,,,,,,,,,,,,,,,,,,,,,,,,,,,,,,,,,,,,340808,001,2024-08-01_15h36.14.492,final,2024.1.5,None,2024-08-01 15h36.17.654286 +0530,
images/10n.tiff,images/10n.tiff,,,,,,,,,,,,,,,0,0,0,6,,,,,276.06378219999897,,,,,,,,,,,,,,,,,,,,,,,,,,,,,,,,,,,,,,,,,,,,,,,,,,,,,,,,,,,,,,,,,,,,,,,,,,,,,,276.0620307000063,276.06378219999897,276.5542855000094,276.5543200999964,276.5673861999967,276.7540602000081,276.75407530000666,276.77335850000964,276.77335850000964,276.77335850000964,277.2740296999982,277.2740296999982,277.8084743000072,['z'],[1.0218568999989657],[None],,,,,,,,,,,,,,,,,,,,,,,,,,,,340808,001,2024-08-01_15h36.14.492,final,2024.1.5,None,2024-08-01 15h36.17.654286 +0530,
images/4n.tiff,images/4n.tiff,,,,,,,,,,,,,,,0,1,1,0,,,,,277.82047469999816,,,,,,,,,,,,,,,,,,,,,,,,,,,,,,,,,,,,,,,,,,,,,,,,,,,,,,,,,,,,,,,,,,,,,,,,,,,,,,277.80986710000434,277.82047469999816,278.3137007000041,278.3137362999987,278.32684400001017,278.51379320000706,278.51382690000173,278.5315837000089,278.5315837000089,278.5315837000089,279.0334626999975,279.0334626999975,279.4223568000016,['z'],[0.8884101000003284],[None],,,,,,,,,,,,,,,,,,,,,,,,,,,,340808,001,2024-08-01_15h36.14.492,final,2024.1.5,None,2024-08-01 15h36.17.654286 +0530,
images/4n.tiff,images/18n.tiff,,,,,,,,,,,,,,,0,2,2,1,,,,,279.4332207999978,,,,,,,,,,,,,,,,,,,,,,,,,,,,,,,,,,,,,,,,,,,,,,,,,,,,,,,,,,,,,,,,,,,,,,,,,,,,,,279.4234170999989,279.4332207999978,279.9266743000044,279.9267056000099,279.93976459999976,280.1266059000045,280.12664159999986,280.1446719000087,280.1446719000087,280.1446719000087,280.64607689999684,280.64607689999684,281.32768970000325,['m'],[1.1789371999911964],[None],,,,,,,,,,,,,,,,,,,,,,,,,,,,340808,001,2024-08-01_15h36.14.492,final,2024.1.5,None,2024-08-01 15h36.17.654286 +0530,
images/10n.tiff,images/10n.tiff,,,,,,,,,,,,,,,0,3,3,11,,,,,281.3395579000062,,,,,,,,,,,,,,,,,,,,,,,,,,,,,,,,,,,,,,,,,,,,,,,,,,,,,,,,,,,,,,,,,,,,,,,,,,,,,,281.3287713000027,281.3395579000062,281.83263070000976,281.8326800000068,281.8457436000026,282.03260330000194,282.03263630000583,282.0543083000084,282.0543083000084,282.0543083000084,282.55229770000733,282.55229770000733,282.8201304999966,['z'],[0.756984099993133],[None],,,,,,,,,,,,,,,,,,,,,,,,,,,,340808,001,2024-08-01_15h36.14.492,final,2024.1.5,None,2024-08-01 15h36.17.654286 +0530,
images/18n.tiff,images/18n.tiff,,,,,,,,,,,,,,,0,4,4,9,,,,,282.83218379999744,,,,,,,,,,,,,,,,,,,,,,,,,,,,,,,,,,,,,,,,,,,,,,,,,,,,,,,,,,,,,,,,,,,,,,,,,,,,,,282.8209787000087,282.83218379999744,283.3254018000007,283.3254442000034,283.33872939999856,283.5252926999965,283.52532410000276,283.5434016000072,283.5434016000072,283.5434016000072,284.04488590000255,284.04488590000255,285.9127176000038,['m'],[2.3641971000033664],[None],,,,,,,,,,,,,,,,,,,,,,,,,,,,340808,001,2024-08-01_15h36.14.492,final,2024.1.5,None,2024-08-01 15h36.17.654286 +0530,
images/18n.tiff,images/4n.tiff,,,,,,,,,,,,,,,0,5,5,5,,,,,285.9243218000047,,,,,,,,,,,,,,,,,,,,,,,,,,,,,,,,,,,,,,,,,,,,,,,,,,,,,,,,,,,,,,,,,,,,,,,,,,,,,,285.9137941000081,285.9243218000047,286.41778090001026,286.4178174999979,286.43104300000414,286.6177929999976,286.6178261000023,286.6363757000072,286.6363757000072,286.6363757000072,287.13742820000334,287.13742820000334,288.0176814000006,['z'],[1.3750785000011092],[None],,,,,,,,,,,,,,,,,,,,,,,,,,,,340808,001,2024-08-01_15h36.14.492,final,2024.1.5,None,2024-08-01 15h36.17.654286 +0530,
images/5n.tiff,images/5n.tiff,,,,,,,,,,,,,,,0,6,6,2,,,,,288.03041479999956,,,,,,,,,,,,,,,,,,,,,,,,,,,,,,,,,,,,,,,,,,,,,,,,,,,,,,,,,,,,,,,,,,,,,,,,,,,,,,288.01818240000284,288.03041479999956,288.5237519000075,288.5239942000044,288.5370324000105,288.72351570001047,288.72354790000827,288.7429107000062,288.7429107000062,288.7429107000062,289.2432506000041,289.2432506000041,289.83172940000077,['z'],[1.0850049000000581],[None],,,,,,,,,,,,,,,,,,,,,,,,,,,,340808,001,2024-08-01_15h36.14.492,final,2024.1.5,None,2024-08-01 15h36.17.654286 +0530,
images/4n.tiff,images/4n.tiff,,,,,,,,,,,,,,,0,7,7,8,,,,,289.84295649999694,,,,,,,,,,,,,,,,,,,,,,,,,,,,,,,,,,,,,,,,,,,,,,,,,,,,,,,,,,,,,,,,,,,,,,,,,,,,,,289.8328157000069,289.84295649999694,290.3364939000021,290.3365281000006,290.34968640000443,290.536462700009,290.53650539999944,290.5537930999999,290.5537930999999,290.5537930999999,291.0562467999989,291.0562467999989,291.6578174000024,['z'],[1.0981283000000985],[None],,,,,,,,,,,,,,,,,,,,,,,,,,,,340808,001,2024-08-01_15h36.14.492,final,2024.1.5,None,2024-08-01 15h36.17.654286 +0530,
images/18n.tiff,images/18n.tiff,,,,,,,,,,,,,,,0,8,8,4,,,,,291.6692160000093,,,,,,,,,,,,,,,,,,,,,,,,,,,,,,,,,,,,,,,,,,,,,,,,,,,,,,,,,,,,,,,,,,,,,,,,,,,,,,291.6589046000008,291.6692160000093,292.1627296000079,292.1627853999962,292.1757071000029,292.3623224000039,292.3623538999964,292.38250730000436,292.38250730000436,292.38250730000436,292.88209320000897,292.88209320000897,293.21698920000927,['m'],[0.8288039000035496],[None],,,,,,,,,,,,,,,,,,,,,,,,,,,,340808,001,2024-08-01_15h36.14.492,final,2024.1.5,None,2024-08-01 15h36.17.654286 +0530,
images/5n.tiff,images/10n.tiff,,,,,,,,,,,,,,,0,9,9,3,,,,,293.22861030000786,,,,,,,,,,,,,,,,,,,,,,,,,,,,,,,,,,,,,,,,,,,,,,,,,,,,,,,,,,,,,,,,,,,,,,,,,,,,,,293.21800229999644,293.22861030000786,293.7221118000016,293.7221509000083,293.7352449000027,293.92182230000617,293.9218542000017,293.94169020000845,293.94169020000845,293.94169020000845,294.44160060001013,294.44160060001013,295.34934830000566,['m'],[1.3979483000002801],[None],,,,,,,,,,,,,,,,,,,,,,,,,,,,340808,001,2024-08-01_15h36.14.492,final,2024.1.5,None,2024-08-01 15h36.17.654286 +0530,
images/5n.tiff,images/5n.tiff,,,,,,,,,,,,,,,0,10,10,10,,,,,295.36117250000825,,,,,,,,,,,,,,,,,,,,,,,,,,,,,,,,,,,,,,,,,,,,,,,,,,,,,,,,,,,,,,,,,,,,,,,,,,,,,,295.3500425000093,295.36117250000825,295.854702800003,295.85473649999767,295.86794409999857,296.054770200004,296.05480830000306,296.0758491000015,296.0758491000015,296.0758491000015,296.5743189000059,296.5743189000059,297.48181170001044,['z'],[1.4001066999917384],[None],,,,,,,,,,,,,,,,,,,,,,,,,,,,340808,001,2024-08-01_15h36.14.492,final,2024.1.5,None,2024-08-01 15h36.17.654286 +0530,
images/10n.tiff,images/5n.tiff,,,,,,,,,,,,,,,0,11,11,7,,,,,297.4940331999969,,,,,,,,,,,,,,,,,,,,,,,,,,,,,,,,,,,,,,,,,,,,,,,,,,,,,,,,,,,,,,,,,,,,,,,,,,,,,,297.48288440000033,297.4940331999969,297.98753870000655,297.9875766000041,298.0003712000034,298.1873981000099,298.1874320000061,298.2072782000032,298.2072782000032,298.2072782000032,298.7070342000079,298.7070342000079,299.4679421000037,['m'],[1.2519468999962555],[None],,,,,,,,,,,,,,,,,,,,,,,,,,,,340808,001,2024-08-01_15h36.14.492,final,2024.1.5,None,2024-08-01 15h36.17.654286 +0530,
images/4n.tiff,images/4n.tiff,,,,,,,,,,,,,,,1,0,12,8,,,,,299.47982360000606,,,,,,,,,,,,,,,,,,,,,,,,,,,,,,,,,,,,,,,,,,,,,,,,,,,,,,,,,,,,,,,,,,,,,,,,,,,,,,299.4691821000015,299.47982360000606,299.9732994000078,299.97333239999716,299.98646620000363,300.17335530000855,300.17339039999933,300.19515339999634,300.19515339999634,300.19515339999634,300.6928540000081,300.6928540000081,301.44056889999774,['z'],[1.2325527999928454],[None],,,,,,,,,,,,,,,,,,,,,,,,,,,,340808,001,2024-08-01_15h36.14.492,final,2024.1.5,None,2024-08-01 15h36.17.654286 +0530,
images/10n.tiff,images/10n.tiff,,,,,,,,,,,,,,,1,1,13,11,,,,,301.4526598000084,,,,,,,,,,,,,,,,,,,,,,,,,,,,,,,,,,,,,,,,,,,,,,,,,,,,,,,,,,,,,,,,,,,,,,,,,,,,,,301.441573300006,301.4526598000084,301.9459627000033,301.9459984999994,301.9590659000096,302.1460565000016,302.14609100000234,302.16815090000455,302.16815090000455,302.16815090000455,302.6655718999973,302.6655718999973,303.2134558999969,['z'],[1.0352421999996295],[None],,,,,,,,,,,,,,,,,,,,,,,,,,,,340808,001,2024-08-01_15h36.14.492,final,2024.1.5,None,2024-08-01 15h36.17.654286 +0530,
images/4n.tiff,images/4n.tiff,,,,,,,,,,,,,,,1,2,14,0,,,,,303.22536150000815,,,,,,,,,,,,,,,,,,,,,,,,,,,,,,,,,,,,,,,,,,,,,,,,,,,,,,,,,,,,,,,,,,,,,,,,,,,,,,303.2145479000028,303.22536150000815,303.7186481999961,303.7186814000015,303.7320000000036,303.9187588000059,303.91879399999743,303.9377167000057,303.9377167000057,303.9377167000057,304.43820270001015,304.43820270001015,304.95960889999697,['z'],[1.010084099994856],[None],,,,,,,,,,,,,,,,,,,,,,,,,,,,340808,001,2024-08-01_15h36.14.492,final,2024.1.5,None,2024-08-01 15h36.17.654286 +0530,
images/5n.tiff,images/5n.tiff,,,,,,,,,,,,,,,1,3,15,10,,,,,304.9715339999966,,,,,,,,,,,,,,,,,,,,,,,,,,,,,,,,,,,,,,,,,,,,,,,,,,,,,,,,,,,,,,,,,,,,,,,,,,,,,,304.96069449999777,304.9715339999966,305.46499540000514,305.4650319000066,305.47779920000175,305.6650246000063,305.6650576000102,305.6837732999993,305.6837732999993,305.6837732999993,306.18458310001006,306.18458310001006,306.8925173000025,['z'],[1.1997324000112712],[None],,,,,,,,,,,,,,,,,,,,,,,,,,,,340808,001,2024-08-01_15h36.14.492,final,2024.1.5,None,2024-08-01 15h36.17.654286 +0530,
images/18n.tiff,images/18n.tiff,,,,,,,,,,,,,,,1,4,16,4,,,,,306.9042549000005,,,,,,,,,,,,,,,,,,,,,,,,,,,,,,,,,,,,,,,,,,,,,,,,,,,,,,,,,,,,,,,,,,,,,,,,,,,,,,306.8935391999985,306.9042549000005,307.3974714000069,307.3975050000008,307.41067310000653,307.59744710000814,307.5974809000036,307.6152889000077,307.6152889000077,307.6152889000077,308.1170375000074,308.1170375000074,309.0120723,['m'],[1.3885788999905344],[None],,,,,,,,,,,,,,,,,,,,,,,,,,,,340808,001,2024-08-01_15h36.14.492,final,2024.1.5,None,2024-08-01 15h36.17.654286 +0530,
images/5n.tiff,images/10n.tiff,,,,,,,,,,,,,,,1,5,17,3,,,,,309.02344620000804,,,,,,,,,,,,,,,,,,,,,,,,,,,,,,,,,,,,,,,,,,,,,,,,,,,,,,,,,,,,,,,,,,,,,,,,,,,,,,309.01310979999835,309.02344620000804,309.51688140000624,309.5169173000031,309.5301720999996,309.71662279999873,309.71665689999645,309.7360222999996,309.7360222999996,309.7360222999996,310.2363922000077,310.2363922000077,310.79752800001006,['m'],[1.051049100002274],[None],,,,,,,,,,,,,,,,,,,,,,,,,,,,340808,001,2024-08-01_15h36.14.492,final,2024.1.5,None,2024-08-01 15h36.17.654286 +0530,
images/10n.tiff,images/5n.tiff,,,,,,,,,,,,,,,1,6,18,7,,,,,310.809514499997,,,,,,,,,,,,,,,,,,,,,,,,,,,,,,,,,,,,,,,,,,,,,,,,,,,,,,,,,,,,,,,,,,,,,,,,,,,,,,310.7985728000058,310.809514499997,311.3029533000081,311.30298700000276,311.3159049000096,311.5027890000056,311.5028259999963,311.52231040000333,311.52231040000333,311.52231040000333,312.022526700006,312.022526700006,312.49074590000964,['m'],[0.9611943000054453],[None],,,,,,,,,,,,,,,,,,,,,,,,,,,,340808,001,2024-08-01_15h36.14.492,final,2024.1.5,None,2024-08-01 15h36.17.654286 +0530,
images/4n.tiff,images/18n.tiff,,,,,,,,,,,,,,,1,7,19,1,,,,,312.5023910000018,,,,,,,,,,,,,,,,,,,,,,,,,,,,,,,,,,,,,,,,,,,,,,,,,,,,,,,,,,,,,,,,,,,,,,,,,,,,,,312.4918069999985,312.5023910000018,312.9954851000075,312.9955201999983,313.00886850000825,313.1956457000051,313.19568250000884,313.21651690000726,313.21651690000726,313.21651690000726,313.71517579999636,313.71517579999636,314.31630479999876,['m'],[1.091418199997861],[None],,,,,,,,,,,,,,,,,,,,,,,,,,,,340808,001,2024-08-01_15h36.14.492,final,2024.1.5,None,2024-08-01 15h36.17.654286 +0530,
images/5n.tiff,images/5n.tiff,,,,,,,,,,,,,,,1,8,20,2,,,,,314.32851310000115,,,,,,,,,,,,,,,,,,,,,,,,,,,,,,,,,,,,,,,,,,,,,,,,,,,,,,,,,,,,,,,,,,,,,,,,,,,,,,314.31737620000786,314.32851310000115,314.8215629000042,314.8215829999972,314.8347671000083,315.0216142999998,315.0216649000067,315.0405674000067,315.0405674000067,315.0405674000067,315.5413980000012,315.5413980000012,316.0625732000044,['z'],[1.0104716999921948],[None],,,,,,,,,,,,,,,,,,,,,,,,,,,,340808,001,2024-08-01_15h36.14.492,final,2024.1.5,None,2024-08-01 15h36.17.654286 +0530,
images/18n.tiff,images/18n.tiff,,,,,,,,,,,,,,,1,9,21,9,,,,,316.0743089000025,,,,,,,,,,,,,,,,,,,,,,,,,,,,,,,,,,,,,,,,,,,,,,,,,,,,,,,,,,,,,,,,,,,,,,,,,,,,,,316.0636672999972,316.0743089000025,316.5678093000024,316.5678445000085,316.58096249999653,316.76776470000914,316.7677965000039,316.7855481000006,316.7855481000006,316.7855481000006,317.2876008000021,317.2876008000021,317.848946099999,['z'],[1.050185700005386],[None],,,,,,,,,,,,,,,,,,,,,,,,,,,,340808,001,2024-08-01_15h36.14.492,final,2024.1.5,None,2024-08-01 15h36.17.654286 +0530,
images/10n.tiff,images/10n.tiff,,,,,,,,,,,,,,,1,10,22,6,,,,,317.8605807999993,,,,,,,,,,,,,,,,,,,,,,,,,,,,,,,,,,,,,,,,,,,,,,,,,,,,,,,,,,,,,,,,,,,,,,,,,,,,,,317.85001470000134,317.8605807999993,318.35405080000055,318.3540890000004,318.3670998000016,318.55376710000564,318.55379450001055,318.5703399000049,318.5703399000049,318.5703399000049,319.07345540000824,319.07345540000824,319.9425903000083,['m'],[1.3699170000036247],[None],,,,,,,,,,,,,,,,,,,,,,,,,,,,340808,001,2024-08-01_15h36.14.492,final,2024.1.5,None,2024-08-01 15h36.17.654286 +0530,
images/18n.tiff,images/4n.tiff,,,,,,,,,,,,,,,1,11,23,5,,,,,319.9532552000019,,,,,,,,,,,,,,,,,,,,,,,,,,,,,,,,,,,,,,,,,,,,,,,,,,,,,,,,,,,,,,,,,,,,,,,,,,,,,,319.9436252000014,319.9532552000019,320.4466520999995,320.44668160000583,320.4598526000045,320.64666600000055,320.64669930000673,320.6640186000004,320.6640186000004,320.6640186000004,321.166163300004,321.166163300004,322.0875095000083,['m'],[1.4190550000057556],[None],,,,,,,,,,,,,,,,,,,,,,,,,,,,340808,001,2024-08-01_15h36.14.492,final,2024.1.5,None,2024-08-01 15h36.17.654286 +0530,
images/10n.tiff,images/5n.tiff,,,,,,,,,,,,,,,2,0,24,7,,,,,322.0992622000049,,,,,,,,,,,,,,,,,,,,,,,,,,,,,,,,,,,,,,,,,,,,,,,,,,,,,,,,,,,,,,,,,,,,,,,,,,,,,,322.0885840999981,322.0992622000049,322.5925111999968,322.59254379999766,322.6057090000104,322.7924697999988,322.7925009000028,322.8103864000004,322.8103864000004,322.8103864000004,323.312056499999,323.312056499999,323.7541851999995,['z'],[0.9367356000002474],[None],,,,,,,,,,,,,,,,,,,,,,,,,,,,340808,001,2024-08-01_15h36.14.492,final,2024.1.5,None,2024-08-01 15h36.17.654286 +0530,
images/5n.tiff,images/5n.tiff,,,,,,,,,,,,,,,2,1,25,10,,,,,323.7653322999977,,,,,,,,,,,,,,,,,,,,,,,,,,,,,,,,,,,,,,,,,,,,,,,,,,,,,,,,,,,,,,,,,,,,,,,,,,,,,,323.75527590001,323.7653322999977,324.2586353000079,324.2586685999995,324.2717993999977,324.4585569000046,324.4585834000027,324.4777456000011,324.4777456000011,324.4777456000011,324.978297499998,324.978297499998,325.3130399000074,['z'],[0.8295045999984723],[None],,,,,,,,,,,,,,,,,,,,,,,,,,,,340808,001,2024-08-01_15h36.14.492,final,2024.1.5,None,2024-08-01 15h36.17.654286 +0530,
images/4n.tiff,images/4n.tiff,,,,,,,,,,,,,,,2,2,26,8,,,,,325.32481550000375,,,,,,,,,,,,,,,,,,,,,,,,,,,,,,,,,,,,,,,,,,,,,,,,,,,,,,,,,,,,,,,,,,,,,,,,,,,,,,325.3140010000061,325.32481550000375,325.8181182999979,325.818153500004,325.83121960000426,326.0181871000095,326.0182197000104,326.0389664999966,326.0389664999966,326.0389664999966,326.5377329000039,326.5377329000039,326.93909320000967,['m'],[0.892369699999108],[None],,,,,,,,,,,,,,,,,,,,,,,,,,,,340808,001,2024-08-01_15h36.14.492,final,2024.1.5,None,2024-08-01 15h36.17.654286 +0530,
images/4n.tiff,images/18n.tiff,,,,,,,,,,,,,,,2,3,27,1,,,,,326.95092889999796,,,,,,,,,,,,,,,,,,,,,,,,,,,,,,,,,,,,,,,,,,,,,,,,,,,,,,,,,,,,,,,,,,,,,,,,,,,,,,326.94009899999946,326.95092889999796,327.44415429999935,327.44417539999995,327.4573417000065,327.6441646000021,327.6441965999984,327.66317379999964,327.66317379999964,327.66317379999964,328.1639015999972,328.1639015999972,329.19160780000675,['m'],[1.5245092999975896],[None],,,,,,,,,,,,,,,,,,,,,,,,,,,,340808,001,2024-08-01_15h36.14.492,final,2024.1.5,None,2024-08-01 15h36.17.654286 +0530,
images/4n.tiff,images/4n.tiff,,,,,,,,,,,,,,,2,4,28,0,,,,,329.20346849999623,,,,,,,,,,,,,,,,,,,,,,,,,,,,,,,,,,,,,,,,,,,,,,,,,,,,,,,,,,,,,,,,,,,,,,,,,,,,,,329.1926860000094,329.20346849999623,329.69685140000365,329.69688610000594,329.71003820000624,329.8967565000057,329.89678979999735,329.91431710000325,329.91431710000325,329.91431710000325,330.4166484000016,330.4166484000016,330.83144550000725,['z'],[0.9135308999975678],[None],,,,,,,,,,,,,,,,,,,,,,,,,,,,340808,001,2024-08-01_15h36.14.492,final,2024.1.5,None,2024-08-01 15h36.17.654286 +0530,
