face_images_1,face_images_2,pos_1,pos_2,trials_30.thisRepN,trials_30.thisTrialN,trials_30.thisN,trials_30.thisIndex,main_1.thisRepN,main_1.thisTrialN,main_1.thisN,main_1.thisIndex,main_2.thisRepN,main_2.thisTrialN,main_2.thisN,main_2.thisIndex,main_3.thisRepN,main_3.thisTrialN,main_3.thisN,main_3.thisIndex,main_4.thisRepN,main_4.thisTrialN,main_4.thisN,main_4.thisIndex,thisRow.t,notes,Instruction.started,text_Welcome.started,key_space.started,Instruction.stopped,key_space.keys,key_space.rt,key_space.duration,gap.started,text_gap.started,gap.stopped,plus.started,plus__.started,plus.stopped,trial_30.started,image_1.started,image_2.started,trial_resp.started,image_1.stopped,image_2.stopped,trial_30.stopped,trial_resp.keys,trial_resp.rt,trial_resp.duration,text_gap.stopped,plus__.stopped,Instruction_1.started,text_instruct.started,space_resp.started,Instruction_1.stopped,space_resp.keys,space_resp.rt,space_resp.duration,gap_1.started,gap__1.started,gap_1.stopped,plus_1.started,plus__1.started,plus_1.stopped,Block_1.started,image_1_set_1.started,image_2_set_1.started,resp_1.started,image_1_set_1.stopped,image_2_set_1.stopped,Block_1.stopped,resp_1.keys,resp_1.rt,resp_1.duration,gap__1.stopped,plus__1.stopped,Instuct_2.started,text_block2.started,space_resp_2.started,Instuct_2.stopped,space_resp_2.keys,space_resp_2.rt,space_resp_2.duration,gap_2.started,gap__2.started,gap_2.stopped,plus_2.started,plus__2.started,plus_2.stopped,Block_2.started,image_1_set_2.started,image_2_set_2.started,resp_2.started,image_1_set_2.stopped,image_2_set_2.stopped,Block_2.stopped,resp_2.keys,resp_2.rt,resp_2.duration,gap__2.stopped,plus__2.stopped,Instruct_3.started,text_block3.started,space_resp_3.started,Instruct_3.stopped,space_resp_3.keys,space_resp_3.rt,space_resp_3.duration,gap_3.started,gap__3.started,gap_3.stopped,plus_3.started,plus__3.started,plus_3.stopped,Block_3.started,image_1_set_3.started,image_2_set_3.started,resp_3.started,image_1_set_3.stopped,image_2_set_3.stopped,Block_3.stopped,resp_3.keys,resp_3.rt,resp_3.duration,gap__3.stopped,plus__3.stopped,Instruct_4.started,text_block4.started,space_resp_4.started,Instruct_4.stopped,space_resp_4.keys,space_resp_4.rt,space_resp_4.duration,gap_4.started,gap__4.started,gap_4.stopped,plus_4.started,plus___4.started,plus_4.stopped,Block_4.started,image_1_set_4.started,image_2_set_4.started,resp_4.started,image_1_set_4.stopped,image_2_set_4.stopped,Block_4.stopped,resp_4.keys,resp_4.rt,resp_4.duration,gap__4.stopped,plus___4.stopped,end.started,text_3.started,end.stopped,participant,session,date,expName,psychopyVersion,frameRate,expStart,
,,,,,,,,,,,,,,,,,,,,,,,,,,0.002400500000021566,0.004390800000010131,0.004390800000010131,4.6983074000000045,['space'],[4.680255999999986],[None],,,,,,,,,,,,,,,,,,,,,,,,,,,,,,,,,,,,,,,,,,,,,,,,,,,,,,,,,,,,,,,,,,,,,,,,,,,,,,,,,,,,,,,,,,,,,,,,,,,,,,,,,,,,,,,,,,,,,,,,,,958162,001,2024-08-01_10h03.11.420,final,2024.1.5,None,2024-08-01 10h03.17.721136 +0530,
images/5n.tiff,images/18n.tiff,"(0.3, 0.2)","(-0.3, 0.2)",0,0,0,6,,,,,,,,,,,,,,,,,4.713086100000027,,,,,,,,,4.710636100000016,4.713086100000027,5.20872300000002,5.208759800000024,5.225144100000023,5.408727800000008,5.408766400000019,5.460810800000019,5.460810800000019,5.460810800000019,5.974967200000009,5.974967200000009,8.858993300000009,['m'],[3.3912116000000196],[None],,,,,,,,,,,,,,,,,,,,,,,,,,,,,,,,,,,,,,,,,,,,,,,,,,,,,,,,,,,,,,,,,,,,,,,,,,,,,,,,,,,,,,,,,,,,,,,,,,,,,,,,,,958162,001,2024-08-01_10h03.11.420,final,2024.1.5,None,2024-08-01 10h03.17.721136 +0530,
images/10n.tiff,images/10n.tiff,"(0.3, 0.2)","(-0.3, 0.2)",0,1,1,24,,,,,,,,,,,,,,,,,8.873931400000004,,,,,,,,,8.861064800000008,8.873931400000004,9.35808160000002,9.358125400000006,9.373838700000022,9.557960900000012,9.558015100000006,9.591858600000023,9.591858600000023,9.591858600000023,10.10695800000002,10.10695800000002,12.075013700000028,['z'],[2.4762548999999865],[None],9.373838700000022,9.591858600000023,,,,,,,,,,,,,,,,,,,,,,,,,,,,,,,,,,,,,,,,,,,,,,,,,,,,,,,,,,,,,,,,,,,,,,,,,,,,,,,,,,,,,,,,,,,,,,,,,,,,,,,,958162,001,2024-08-01_10h03.11.420,final,2024.1.5,None,2024-08-01 10h03.17.721136 +0530,
images/4n.tiff,images/5n.tiff,"(0.3, 0.2)","(-0.3, 0.2)",0,2,2,0,,,,,,,,,,,,,,,,,12.08948220000002,,,,,,,,,12.076349400000026,12.08948220000002,12.573667200000017,12.573708300000021,12.589395000000025,12.773662400000006,12.773704800000019,12.796633700000001,12.796633700000001,12.796633700000001,13.305914900000005,13.305914900000005,22.370504200000028,['z'],[9.559849100000008],[None],12.589395000000025,12.796633700000001,,,,,,,,,,,,,,,,,,,,,,,,,,,,,,,,,,,,,,,,,,,,,,,,,,,,,,,,,,,,,,,,,,,,,,,,,,,,,,,,,,,,,,,,,,,,,,,,,,,,,,,,958162,001,2024-08-01_10h03.11.420,final,2024.1.5,None,2024-08-01 10h03.17.721136 +0530,
images/10n.tiff,images/5n.tiff,"(0.3, 0.2)","(-0.3, 0.2)",0,3,3,9,,,,,,,,,,,,,,,,,22.386211400000008,,,,,,,,,22.371240100000023,22.386211400000008,22.87022860000002,22.87026510000001,22.8859798,23.07036070000001,23.07040550000002,23.1031409,23.1031409,23.1031409,23.602543000000026,23.602543000000026,24.970730000000003,['m'],[1.8529371999999853],[None],22.8859798,23.1031409,,,,,,,,,,,,,,,,,,,,,,,,,,,,,,,,,,,,,,,,,,,,,,,,,,,,,,,,,,,,,,,,,,,,,,,,,,,,,,,,,,,,,,,,,,,,,,,,,,,,,,,,958162,001,2024-08-01_10h03.11.420,final,2024.1.5,None,2024-08-01 10h03.17.721136 +0530,
images/4n.tiff,images/18n.tiff,"(0.3, 0.2)","(-0.3, 0.2)",0,4,4,18,,,,,,,,,,,,,,,,,24.985312800000003,,,,,,,,,24.97201130000002,24.985312800000003,25.4695423,25.469587400000023,25.485165600000016,25.669487100000026,25.66959940000001,25.691776800000014,25.691776800000014,25.691776800000014,26.201663800000006,26.201663800000006,28.7194609,['m'],[3.0242891999999983],[None],25.485165600000016,25.691776800000014,,,,,,,,,,,,,,,,,,,,,,,,,,,,,,,,,,,,,,,,,,,,,,,,,,,,,,,,,,,,,,,,,,,,,,,,,,,,,,,,,,,,,,,,,,,,,,,,,,,,,,,,958162,001,2024-08-01_10h03.11.420,final,2024.1.5,None,2024-08-01 10h03.17.721136 +0530,
images/18n.tiff,images/10n.tiff,"(0.3, 0.2)","(-0.3, 0.2)",0,5,5,14,,,,,,,,,,,,,,,,,28.73407690000002,,,,,,,,,28.720774500000005,28.73407690000002,29.217834700000026,29.21786690000002,29.2337244,29.41822910000002,29.41827890000002,29.441252700000007,29.441252700000007,29.441252700000007,29.950447300000008,29.950447300000008,30.801869200000027,['m'],[1.346613500000018],[None],29.2337244,29.441252700000007,,,,,,,,,,,,,,,,,,,,,,,,,,,,,,,,,,,,,,,,,,,,,,,,,,,,,,,,,,,,,,,,,,,,,,,,,,,,,,,,,,,,,,,,,,,,,,,,,,,,,,,,958162,001,2024-08-01_10h03.11.420,final,2024.1.5,None,2024-08-01 10h03.17.721136 +0530,
images/18n.tiff,images/4n.tiff,"(0.3, 0.2)","(-0.3, 0.2)",0,6,6,12,,,,,,,,,,,,,,,,,30.816665900000004,,,,,,,,,30.802300700000018,30.816665900000004,31.300705600000015,31.300736900000004,31.316665900000004,31.500859100000014,31.5008981,31.522661900000003,31.522661900000003,31.522661900000003,32.033044200000006,32.033044200000006,32.90011950000002,['m'],[1.3691679000000079],[None],31.316665900000004,31.522661900000003,,,,,,,,,,,,,,,,,,,,,,,,,,,,,,,,,,,,,,,,,,,,,,,,,,,,,,,,,,,,,,,,,,,,,,,,,,,,,,,,,,,,,,,,,,,,,,,,,,,,,,,,958162,001,2024-08-01_10h03.11.420,final,2024.1.5,None,2024-08-01 10h03.17.721136 +0530,
images/4n.tiff,images/10n.tiff,"(0.3, 0.2)","(-0.3, 0.2)",0,7,7,1,,,,,,,,,,,,,,,,,32.91605230000002,,,,,,,,,32.90054890000002,32.91605230000002,33.400439500000005,33.40048250000001,33.41593940000001,33.600127800000024,33.60017490000001,33.62255520000002,33.62255520000002,33.62255520000002,34.13236970000003,34.13236970000003,34.817530800000014,['m'],[1.1818136999999922],[None],33.41593940000001,33.62255520000002,,,,,,,,,,,,,,,,,,,,,,,,,,,,,,,,,,,,,,,,,,,,,,,,,,,,,,,,,,,,,,,,,,,,,,,,,,,,,,,,,,,,,,,,,,,,,,,,,,,,,,,,958162,001,2024-08-01_10h03.11.420,final,2024.1.5,None,2024-08-01 10h03.17.721136 +0530,
images/10n.tiff,images/18n.tiff,"(0.3, 0.2)","(-0.3, 0.2)",0,8,8,10,,,,,,,,,,,,,,,,,34.83212020000002,,,,,,,,,34.81883760000002,34.83212020000002,35.31590970000002,35.315939800000024,35.331946800000026,35.51623660000001,35.51628170000001,35.53932830000002,35.53932830000002,35.53932830000002,36.04841560000003,36.04841560000003,36.55107450000003,['m'],[1.0093123999999989],[None],35.331946800000026,35.53932830000002,,,,,,,,,,,,,,,,,,,,,,,,,,,,,,,,,,,,,,,,,,,,,,,,,,,,,,,,,,,,,,,,,,,,,,,,,,,,,,,,,,,,,,,,,,,,,,,,,,,,,,,,958162,001,2024-08-01_10h03.11.420,final,2024.1.5,None,2024-08-01 10h03.17.721136 +0530,
images/5n.tiff,images/5n.tiff,"(0.3, 0.2)","(-0.3, 0.2)",0,9,9,7,,,,,,,,,,,,,,,,,36.56491970000002,,,,,,,,,36.55235990000003,36.56491970000002,37.04922910000002,37.049274500000024,37.06480160000001,37.24906720000001,37.249112500000024,37.27115420000001,37.27115420000001,37.27115420000001,37.78072610000001,37.78072610000001,38.56647910000004,['z'],[1.293343899999968],[None],37.06480160000001,37.27115420000001,,,,,,,,,,,,,,,,,,,,,,,,,,,,,,,,,,,,,,,,,,,,,,,,,,,,,,,,,,,,,,,,,,,,,,,,,,,,,,,,,,,,,,,,,,,,,,,,,,,,,,,,958162,001,2024-08-01_10h03.11.420,final,2024.1.5,None,2024-08-01 10h03.17.721136 +0530,
images/10n.tiff,images/4n.tiff,"(0.3, 0.2)","(-0.3, 0.2)",0,10,10,8,,,,,,,,,,,,,,,,,38.58067840000001,,,,,,,,,38.56782659999999,38.58067840000001,39.06498780000004,39.06502840000002,39.080705300000034,39.26498220000002,39.265024900000014,39.286800400000004,39.286800400000004,39.286800400000004,39.797209699999996,39.797209699999996,40.26571100000001,['m'],[0.9651020000000017],[None],39.080705300000034,39.286800400000004,,,,,,,,,,,,,,,,,,,,,,,,,,,,,,,,,,,,,,,,,,,,,,,,,,,,,,,,,,,,,,,,,,,,,,,,,,,,,,,,,,,,,,,,,,,,,,,,,,,,,,,,958162,001,2024-08-01_10h03.11.420,final,2024.1.5,None,2024-08-01 10h03.17.721136 +0530,
images/5n.tiff,images/5n.tiff,"(0.3, 0.2)","(-0.3, 0.2)",0,11,11,22,,,,,,,,,,,,,,,,,40.280328999999995,,,,,,,,,40.26715920000004,40.280328999999995,40.76447840000003,40.764538200000004,40.78012190000004,40.96455309999999,40.96460139999999,40.98516310000002,40.98516310000002,40.98516310000002,41.496662000000015,41.496662000000015,41.981419800000026,['z'],[0.9870974999999476],[None],40.78012190000004,40.98516310000002,,,,,,,,,,,,,,,,,,,,,,,,,,,,,,,,,,,,,,,,,,,,,,,,,,,,,,,,,,,,,,,,,,,,,,,,,,,,,,,,,,,,,,,,,,,,,,,,,,,,,,,,958162,001,2024-08-01_10h03.11.420,final,2024.1.5,None,2024-08-01 10h03.17.721136 +0530,
images/5n.tiff,images/10n.tiff,"(0.3, 0.2)","(-0.3, 0.2)",0,12,12,20,,,,,,,,,,,,,,,,,41.99644219999999,,,,,,,,,41.98281059999999,41.99644219999999,42.480555100000004,42.48059790000002,42.496328000000005,42.68052560000001,42.68057060000001,42.70149789999999,42.70149789999999,42.70149789999999,43.21276019999999,43.21276019999999,44.01445690000003,['m'],[1.3028305000000273],[None],42.496328000000005,42.70149789999999,,,,,,,,,,,,,,,,,,,,,,,,,,,,,,,,,,,,,,,,,,,,,,,,,,,,,,,,,,,,,,,,,,,,,,,,,,,,,,,,,,,,,,,,,,,,,,,,,,,,,,,,958162,001,2024-08-01_10h03.11.420,final,2024.1.5,None,2024-08-01 10h03.17.721136 +0530,
images/18n.tiff,images/10n.tiff,"(0.3, 0.2)","(-0.3, 0.2)",0,13,13,28,,,,,,,,,,,,,,,,,44.029073400000016,,,,,,,,,44.0158515,44.029073400000016,44.513319300000035,44.51336309999999,44.528933499999994,44.7132206,44.71326520000002,44.736201900000026,44.736201900000026,44.736201900000026,45.24544700000001,45.24544700000001,45.64699139999999,['m'],[0.8996108000000049],[None],44.528933499999994,44.736201900000026,,,,,,,,,,,,,,,,,,,,,,,,,,,,,,,,,,,,,,,,,,,,,,,,,,,,,,,,,,,,,,,,,,,,,,,,,,,,,,,,,,,,,,,,,,,,,,,,,,,,,,,,958162,001,2024-08-01_10h03.11.420,final,2024.1.5,None,2024-08-01 10h03.17.721136 +0530,
images/5n.tiff,images/4n.tiff,"(0.3, 0.2)","(-0.3, 0.2)",0,14,14,26,,,,,,,,,,,,,,,,,45.66194010000004,,,,,,,,,45.64823960000001,45.66194010000004,46.146053600000016,46.14609390000004,46.1616176,46.34602319999999,46.346068100000025,46.36705169999999,46.36705169999999,46.36705169999999,46.87813600000004,46.87813600000004,47.28015730000004,['m'],[0.9089594000000147],[None],46.1616176,46.36705169999999,,,,,,,,,,,,,,,,,,,,,,,,,,,,,,,,,,,,,,,,,,,,,,,,,,,,,,,,,,,,,,,,,,,,,,,,,,,,,,,,,,,,,,,,,,,,,,,,,,,,,,,,958162,001,2024-08-01_10h03.11.420,final,2024.1.5,None,2024-08-01 10h03.17.721136 +0530,
images/4n.tiff,images/10n.tiff,"(0.3, 0.2)","(-0.3, 0.2)",0,15,15,17,,,,,,,,,,,,,,,,,47.29476579999999,,,,,,,,,47.28140719999999,47.29476579999999,47.77883919999999,47.778884500000004,47.79456859999999,47.97872960000001,47.97877220000004,48.00067469999999,48.00067469999999,48.00067469999999,48.51100339999999,48.51100339999999,48.97768810000002,['m'],[0.9638577000000055],[None],47.79456859999999,48.00067469999999,,,,,,,,,,,,,,,,,,,,,,,,,,,,,,,,,,,,,,,,,,,,,,,,,,,,,,,,,,,,,,,,,,,,,,,,,,,,,,,,,,,,,,,,,,,,,,,,,,,,,,,,958162,001,2024-08-01_10h03.11.420,final,2024.1.5,None,2024-08-01 10h03.17.721136 +0530,
images/5n.tiff,images/10n.tiff,"(0.3, 0.2)","(-0.3, 0.2)",0,16,16,5,,,,,,,,,,,,,,,,,48.993956300000036,,,,,,,,,48.9781193,48.993956300000036,49.47729390000001,49.47730899999999,49.49370540000001,49.678111400000034,49.67815580000001,49.7009764,49.7009764,49.7009764,50.21046970000003,50.21046970000003,50.628857900000014,['z'],[0.919754399999988],[None],49.49370540000001,49.7009764,,,,,,,,,,,,,,,,,,,,,,,,,,,,,,,,,,,,,,,,,,,,,,,,,,,,,,,,,,,,,,,,,,,,,,,,,,,,,,,,,,,,,,,,,,,,,,,,,,,,,,,,958162,001,2024-08-01_10h03.11.420,final,2024.1.5,None,2024-08-01 10h03.17.721136 +0530,
images/18n.tiff,images/5n.tiff,"(0.3, 0.2)","(-0.3, 0.2)",0,17,17,13,,,,,,,,,,,,,,,,,50.64364280000001,,,,,,,,,50.63041880000003,50.64364280000001,51.12774910000002,51.12780889999999,51.143520300000034,51.32767960000001,51.32772349999999,51.350931600000024,51.350931600000024,51.350931600000024,51.8599519,51.8599519,52.42826790000004,['m'],[1.0694949999999608],[None],51.143520300000034,51.350931600000024,,,,,,,,,,,,,,,,,,,,,,,,,,,,,,,,,,,,,,,,,,,,,,,,,,,,,,,,,,,,,,,,,,,,,,,,,,,,,,,,,,,,,,,,,,,,,,,,,,,,,,,,958162,001,2024-08-01_10h03.11.420,final,2024.1.5,None,2024-08-01 10h03.17.721136 +0530,
images/4n.tiff,images/4n.tiff,"(0.3, 0.2)","(-0.3, 0.2)",0,18,18,3,,,,,,,,,,,,,,,,,52.442963099999986,,,,,,,,,52.42977669999999,52.442963099999986,52.927164000000005,52.92721399999999,52.9429212,53.12711610000002,53.127165700000035,53.14980360000004,53.14980360000004,53.14980360000004,53.65936679999999,53.65936679999999,54.87748650000003,['z'],[1.718594200000041],[None],52.9429212,53.14980360000004,,,,,,,,,,,,,,,,,,,,,,,,,,,,,,,,,,,,,,,,,,,,,,,,,,,,,,,,,,,,,,,,,,,,,,,,,,,,,,,,,,,,,,,,,,,,,,,,,,,,,,,,958162,001,2024-08-01_10h03.11.420,final,2024.1.5,None,2024-08-01 10h03.17.721136 +0530,
images/4n.tiff,images/18n.tiff,"(0.3, 0.2)","(-0.3, 0.2)",0,19,19,2,,,,,,,,,,,,,,,,,54.89229240000003,,,,,,,,,54.87876620000003,54.89229240000003,55.37637219999999,55.376419699999985,55.392134,55.57626429999999,55.576308900000015,55.59778210000002,55.59778210000002,55.59778210000002,56.10850529999999,56.10850529999999,56.81074380000001,['m'],[1.2063413999999852],[None],55.392134,55.59778210000002,,,,,,,,,,,,,,,,,,,,,,,,,,,,,,,,,,,,,,,,,,,,,,,,,,,,,,,,,,,,,,,,,,,,,,,,,,,,,,,,,,,,,,,,,,,,,,,,,,,,,,,,958162,001,2024-08-01_10h03.11.420,final,2024.1.5,None,2024-08-01 10h03.17.721136 +0530,
images/18n.tiff,images/18n.tiff,"(0.3, 0.2)","(-0.3, 0.2)",0,20,20,15,,,,,,,,,,,,,,,,,56.82490910000001,,,,,,,,,56.81202160000004,56.82490910000001,57.3090909,57.309133599999996,57.324733700000024,57.509534099999996,57.50957970000002,57.52962869999999,57.52962869999999,57.52962869999999,58.04125920000001,58.04125920000001,58.70944860000003,['z'],[1.1706573999999819],[None],57.324733700000024,57.52962869999999,,,,,,,,,,,,,,,,,,,,,,,,,,,,,,,,,,,,,,,,,,,,,,,,,,,,,,,,,,,,,,,,,,,,,,,,,,,,,,,,,,,,,,,,,,,,,,,,,,,,,,,,958162,001,2024-08-01_10h03.11.420,final,2024.1.5,None,2024-08-01 10h03.17.721136 +0530,
images/18n.tiff,images/4n.tiff,"(0.3, 0.2)","(-0.3, 0.2)",0,21,21,29,,,,,,,,,,,,,,,,,58.72425270000002,,,,,,,,,58.71071470000004,58.72425270000002,59.20844890000001,59.208490900000015,59.2240946,59.40828060000001,59.40831910000003,59.428854400000034,59.428854400000034,59.428854400000034,59.94062230000003,59.94062230000003,60.392492300000015,['m'],[0.9589900999999941],[None],59.2240946,59.428854400000034,,,,,,,,,,,,,,,,,,,,,,,,,,,,,,,,,,,,,,,,,,,,,,,,,,,,,,,,,,,,,,,,,,,,,,,,,,,,,,,,,,,,,,,,,,,,,,,,,,,,,,,,958162,001,2024-08-01_10h03.11.420,final,2024.1.5,None,2024-08-01 10h03.17.721136 +0530,
images/4n.tiff,images/4n.tiff,"(0.3, 0.2)","(-0.3, 0.2)",0,22,22,19,,,,,,,,,,,,,,,,,60.40692519999999,,,,,,,,,60.39378220000003,60.40692519999999,60.89126780000004,60.89130640000002,60.90697180000001,61.09125270000004,61.09129810000002,61.11354270000004,61.11354270000004,61.11354270000004,61.62335280000002,61.62335280000002,65.80582140000001,['z'],[4.682487700000024],[None],60.90697180000001,61.11354270000004,,,,,,,,,,,,,,,,,,,,,,,,,,,,,,,,,,,,,,,,,,,,,,,,,,,,,,,,,,,,,,,,,,,,,,,,,,,,,,,,,,,,,,,,,,,,,,,,,,,,,,,,958162,001,2024-08-01_10h03.11.420,final,2024.1.5,None,2024-08-01 10h03.17.721136 +0530,
images/5n.tiff,images/18n.tiff,"(0.3, 0.2)","(-0.3, 0.2)",0,23,23,21,,,,,,,,,,,,,,,,,65.8217204,,,,,,,,,65.8063191,65.8217204,66.30616550000002,66.30620820000001,66.32179070000001,66.50586390000001,66.5059124,66.5277759,66.5277759,66.5277759,67.03831059999999,67.03831059999999,67.656522,['m'],[1.124478599999975],[None],66.32179070000001,66.5277759,,,,,,,,,,,,,,,,,,,,,,,,,,,,,,,,,,,,,,,,,,,,,,,,,,,,,,,,,,,,,,,,,,,,,,,,,,,,,,,,,,,,,,,,,,,,,,,,,,,,,,,,958162,001,2024-08-01_10h03.11.420,final,2024.1.5,None,2024-08-01 10h03.17.721136 +0530,
images/10n.tiff,images/18n.tiff,"(0.3, 0.2)","(-0.3, 0.2)",0,24,24,23,,,,,,,,,,,,,,,,,67.67128580000002,,,,,,,,,67.6576794,67.67128580000002,68.15555900000004,68.15560140000002,68.17103230000004,68.35561490000003,68.35566420000004,68.3779462,68.3779462,68.3779462,68.88769990000003,68.88769990000003,69.37275270000004,['m'],[0.9780910000000063],[None],68.17103230000004,68.3779462,,,,,,,,,,,,,,,,,,,,,,,,,,,,,,,,,,,,,,,,,,,,,,,,,,,,,,,,,,,,,,,,,,,,,,,,,,,,,,,,,,,,,,,,,,,,,,,,,,,,,,,,958162,001,2024-08-01_10h03.11.420,final,2024.1.5,None,2024-08-01 10h03.17.721136 +0530,
images/10n.tiff,images/5n.tiff,"(0.3, 0.2)","(-0.3, 0.2)",0,25,25,27,,,,,,,,,,,,,,,,,69.3875299,,,,,,,,,69.37403610000001,69.3875299,69.87167950000003,69.8717246,69.88736650000004,70.07145109999999,70.07149150000004,70.09267540000002,70.09267540000002,70.09267540000002,70.60379900000004,70.60379900000004,71.35417360000002,['m'],[1.2560555000000022],[None],69.88736650000004,70.09267540000002,,,,,,,,,,,,,,,,,,,,,,,,,,,,,,,,,,,,,,,,,,,,,,,,,,,,,,,,,,,,,,,,,,,,,,,,,,,,,,,,,,,,,,,,,,,,,,,,,,,,,,,,958162,001,2024-08-01_10h03.11.420,final,2024.1.5,None,2024-08-01 10h03.17.721136 +0530,
images/4n.tiff,images/5n.tiff,"(0.3, 0.2)","(-0.3, 0.2)",0,26,26,16,,,,,,,,,,,,,,,,,71.36999810000003,,,,,,,,,71.35471870000003,71.36999810000003,71.853587,71.85359770000002,71.86981589999999,72.0537084,72.0537309,72.07487330000004,72.07487330000004,72.07487330000004,72.58643330000001,72.58643330000001,73.40321920000002,['m'],[1.3224821999999676],[None],71.86981589999999,72.07487330000004,,,,,,,,,,,,,,,,,,,,,,,,,,,,,,,,,,,,,,,,,,,,,,,,,,,,,,,,,,,,,,,,,,,,,,,,,,,,,,,,,,,,,,,,,,,,,,,,,,,,,,,,958162,001,2024-08-01_10h03.11.420,final,2024.1.5,None,2024-08-01 10h03.17.721136 +0530,
images/5n.tiff,images/4n.tiff,"(0.3, 0.2)","(-0.3, 0.2)",0,27,27,4,,,,,,,,,,,,,,,,,73.4191103,,,,,,,,,73.40365600000001,73.4191103,73.90360980000003,73.90365030000004,73.91931870000002,74.1035364,74.10358869999999,74.12646520000004,74.12646520000004,74.12646520000004,74.63575650000001,74.63575650000001,74.987414,['m'],[0.8454944000000069],[None],73.91931870000002,74.12646520000004,,,,,,,,,,,,,,,,,,,,,,,,,,,,,,,,,,,,,,,,,,,,,,,,,,,,,,,,,,,,,,,,,,,,,,,,,,,,,,,,,,,,,,,,,,,,,,,,,,,,,,,,958162,001,2024-08-01_10h03.11.420,final,2024.1.5,None,2024-08-01 10h03.17.721136 +0530,
images/18n.tiff,images/18n.tiff,"(0.3, 0.2)","(-0.3, 0.2)",0,28,28,25,,,,,,,,,,,,,,,,,75.00235330000004,,,,,,,,,74.98871660000003,75.00235330000004,75.48671050000002,75.48675780000002,75.50221379999999,75.6864175,75.6864617,75.70809360000004,75.70809360000004,75.70809360000004,76.21841330000001,76.21841330000001,76.92023190000003,['z'],[1.2078571000000125],[None],75.50221379999999,75.70809360000004,,,,,,,,,,,,,,,,,,,,,,,,,,,,,,,,,,,,,,,,,,,,,,,,,,,,,,,,,,,,,,,,,,,,,,,,,,,,,,,,,,,,,,,,,,,,,,,,,,,,,,,,958162,001,2024-08-01_10h03.11.420,final,2024.1.5,None,2024-08-01 10h03.17.721136 +0530,
images/10n.tiff,images/10n.tiff,"(0.3, 0.2)","(-0.3, 0.2)",0,29,29,11,,,,,,,,,,,,,,,,,76.9350498,,,,,,,,,76.92150280000004,76.9350498,77.41918170000002,77.4192256,77.4349168,77.6189554,77.61899149999999,77.64041320000001,77.64041320000001,77.64041320000001,78.1513089,78.1513089,79.61924440000001,['m'],[1.9642337000000225],[None],77.4349168,77.64041320000001,,,,,,,,,,,,,,,,,,,,,,,,,,,,,,,,,,,,,,,,,,,,,,,,,,,,,,,,,,,,,,,,,,,,,,,,,,,,,,,,,,,,,,,,,,,,,,,,,,,,,,,,958162,001,2024-08-01_10h03.11.420,final,2024.1.5,None,2024-08-01 10h03.17.721136 +0530,
,,,,,,,,,,,,,,,,,,,,,,,,,,,,,,,,,,,,,,,,,,,,,,,,,,,79.62012950000002,79.63427060000004,79.63427060000004,155.94431050000003,space,76.3056353,None,,,,,,,,,,,,,,,,,,,,,,,,,,,,,,,,,,,,,,,,,,,,,,,,,,,,,,,,,,,,,,,,,,,,,,,,,,,,,,,,,,,,,,,,,,,,,,,,,958162,001,2024-08-01_10h03.11.420,final,2024.1.5,None,2024-08-01 10h03.17.721136 +0530,
images/10n.tiff,images/10n.tiff,,,,,,,0,0,0,2,,,,,,,,,,,,,155.96604410000003,,,,,,,,,,,,,,,,,,,,,,,,,,,,,,,,,,155.96346540000002,155.96604410000003,156.4591031,156.4591347,156.4756661,156.6591533,156.6591912,156.71216470000002,156.71216470000002,156.71216470000002,157.22544670000002,157.22544670000002,158.9270659,['z'],[2.2040480000000002],[None],,,,,,,,,,,,,,,,,,,,,,,,,,,,,,,,,,,,,,,,,,,,,,,,,,,,,,,,,,,,,,,,,,,,,,,,,,,,,,,,,958162,001,2024-08-01_10h03.11.420,final,2024.1.5,None,2024-08-01 10h03.17.721136 +0530,
images/5n.tiff,images/10n.tiff,,,,,,,0,1,1,1,,,,,,,,,,,,,158.94145080000004,,,,,,,,,,,,,,,,,,,,,,,,,,,,,,,,,,158.92883640000002,158.94145080000004,159.42574580000002,159.42579130000001,159.44136630000003,159.62561,159.62565920000003,159.6482613,159.6482613,159.6482613,160.15769870000003,160.15769870000003,160.79297880000001,['m'],[1.1396529000000442],[None],159.44136630000003,159.6482613,,,,,,,,,,,,,,,,,,,,,,,,,,,,,,,,,,,,,,,,,,,,,,,,,,,,,,,,,,,,,,,,,,,,,,,,,,,,,,,958162,001,2024-08-01_10h03.11.420,final,2024.1.5,None,2024-08-01 10h03.17.721136 +0530,
images/10n.tiff,images/10n.tiff,,,,,,,0,2,2,5,,,,,,,,,,,,,160.80746320000003,,,,,,,,,,,,,,,,,,,,,,,,,,,,,,,,,,160.7945469,160.80746320000003,161.2916864,161.2917278,161.30729589999999,161.4916498,161.4916927,161.51302480000004,161.51302480000004,161.51302480000004,162.02382090000003,162.02382090000003,163.3251232,['z'],[1.8029080000000022],[None],161.30729589999999,161.51302480000004,,,,,,,,,,,,,,,,,,,,,,,,,,,,,,,,,,,,,,,,,,,,,,,,,,,,,,,,,,,,,,,,,,,,,,,,,,,,,,,958162,001,2024-08-01_10h03.11.420,final,2024.1.5,None,2024-08-01 10h03.17.721136 +0530,
images/10n.tiff,images/5n.tiff,,,,,,,0,3,3,3,,,,,,,,,,,,,163.34001410000002,,,,,,,,,,,,,,,,,,,,,,,,,,,,,,,,,,163.3262869,163.34001410000002,163.82430240000002,163.82434870000003,163.8399442,164.02423270000003,164.02427920000002,164.0461828,164.0461828,164.0461828,164.5562289,164.5562289,165.1915924,['m'],[1.1337305000000129],[None],163.8399442,164.0461828,,,,,,,,,,,,,,,,,,,,,,,,,,,,,,,,,,,,,,,,,,,,,,,,,,,,,,,,,,,,,,,,,,,,,,,,,,,,,,,958162,001,2024-08-01_10h03.11.420,final,2024.1.5,None,2024-08-01 10h03.17.721136 +0530,
images/5n.tiff,images/5n.tiff,,,,,,,0,4,4,0,,,,,,,,,,,,,165.20605970000003,,,,,,,,,,,,,,,,,,,,,,,,,,,,,,,,,,165.19308490000003,165.20605970000003,165.6903762,165.6904222,165.70591080000003,165.89040140000003,165.8904453,165.9118052,165.9118052,165.9118052,166.42242600000003,166.42242600000003,168.6736118,['z'],[2.7562075000000164],[None],165.70591080000003,165.9118052,,,,,,,,,,,,,,,,,,,,,,,,,,,,,,,,,,,,,,,,,,,,,,,,,,,,,,,,,,,,,,,,,,,,,,,,,,,,,,,958162,001,2024-08-01_10h03.11.420,final,2024.1.5,None,2024-08-01 10h03.17.721136 +0530,
images/5n.tiff,images/5n.tiff,,,,,,,0,5,5,4,,,,,,,,,,,,,168.6882119,,,,,,,,,,,,,,,,,,,,,,,,,,,,,,,,,,168.6751188,168.6882119,169.1724054,169.1724433,169.18817660000002,169.37239870000002,169.37243920000003,169.3951275,169.3951275,169.3951275,169.90454019999999,169.90454019999999,170.2899316,['z'],[0.8812800000000038],[None],169.18817660000002,169.3951275,,,,,,,,,,,,,,,,,,,,,,,,,,,,,,,,,,,,,,,,,,,,,,,,,,,,,,,,,,,,,,,,,,,,,,,,,,,,,,,958162,001,2024-08-01_10h03.11.420,final,2024.1.5,None,2024-08-01 10h03.17.721136 +0530,
images/10n.tiff,images/10n.tiff,,,,,,,1,0,6,2,,,,,,,,,,,,,170.3043884,,,,,,,,,,,,,,,,,,,,,,,,,,,,,,,,,,170.29174110000002,170.3043884,170.78858460000004,170.78862780000003,170.8042294,170.9886671,170.9887137,171.0099106,171.0099106,171.0099106,171.5205092,171.5205092,172.1225867,['z'],[1.0979992999999695],[None],170.8042294,171.0099106,,,,,,,,,,,,,,,,,,,,,,,,,,,,,,,,,,,,,,,,,,,,,,,,,,,,,,,,,,,,,,,,,,,,,,,,,,,,,,,958162,001,2024-08-01_10h03.11.420,final,2024.1.5,None,2024-08-01 10h03.17.721136 +0530,
images/10n.tiff,images/10n.tiff,,,,,,,1,1,7,5,,,,,,,,,,,,,172.1371684,,,,,,,,,,,,,,,,,,,,,,,,,,,,,,,,,,172.1240785,172.1371684,172.6214193,172.62145910000004,172.6370897,172.82127880000002,172.8213227,172.84274850000003,172.84274850000003,172.84274850000003,173.3534234,173.3534234,174.07178950000002,['z'],[1.2173472999999717],[None],172.6370897,172.84274850000003,,,,,,,,,,,,,,,,,,,,,,,,,,,,,,,,,,,,,,,,,,,,,,,,,,,,,,,,,,,,,,,,,,,,,,,,,,,,,,,958162,001,2024-08-01_10h03.11.420,final,2024.1.5,None,2024-08-01 10h03.17.721136 +0530,
images/5n.tiff,images/5n.tiff,,,,,,,1,2,8,0,,,,,,,,,,,,,174.0865609,,,,,,,,,,,,,,,,,,,,,,,,,,,,,,,,,,174.0733072,174.0865609,174.5707178,174.570765,174.5863294,174.7706523,174.7706951,174.79233880000004,174.79233880000004,174.79233880000004,175.30276830000003,175.30276830000003,176.00457650000004,['z'],[1.2044017000000053],[None],174.5863294,174.79233880000004,,,,,,,,,,,,,,,,,,,,,,,,,,,,,,,,,,,,,,,,,,,,,,,,,,,,,,,,,,,,,,,,,,,,,,,,,,,,,,,958162,001,2024-08-01_10h03.11.420,final,2024.1.5,None,2024-08-01 10h03.17.721136 +0530,
images/5n.tiff,images/10n.tiff,,,,,,,1,3,9,1,,,,,,,,,,,,,176.0192637,,,,,,,,,,,,,,,,,,,,,,,,,,,,,,,,,,176.0062049,176.0192637,176.5033543,176.50340040000003,176.51912420000002,176.70328030000002,176.7033245,176.72519120000004,176.72519120000004,176.72519120000004,177.2355351,177.2355351,177.70392520000001,['m'],[0.9671951000000263],[None],176.51912420000002,176.72519120000004,,,,,,,,,,,,,,,,,,,,,,,,,,,,,,,,,,,,,,,,,,,,,,,,,,,,,,,,,,,,,,,,,,,,,,,,,,,,,,,958162,001,2024-08-01_10h03.11.420,final,2024.1.5,None,2024-08-01 10h03.17.721136 +0530,
images/5n.tiff,images/5n.tiff,,,,,,,1,4,10,4,,,,,,,,,,,,,177.7186696,,,,,,,,,,,,,,,,,,,,,,,,,,,,,,,,,,177.7054271,177.7186696,178.2028027,178.2028457,178.21853850000002,178.402715,178.4027615,178.4240754,178.4240754,178.4240754,178.9348253,178.9348253,179.37006300000002,['z'],[0.9400438999999778],[None],178.21853850000002,178.4240754,,,,,,,,,,,,,,,,,,,,,,,,,,,,,,,,,,,,,,,,,,,,,,,,,,,,,,,,,,,,,,,,,,,,,,,,,,,,,,,958162,001,2024-08-01_10h03.11.420,final,2024.1.5,None,2024-08-01 10h03.17.721136 +0530,
images/10n.tiff,images/5n.tiff,,,,,,,1,5,11,3,,,,,,,,,,,,,179.3848046,,,,,,,,,,,,,,,,,,,,,,,,,,,,,,,,,,179.3715474,179.3848046,179.8689986,179.86904530000004,179.88465740000004,180.0689319,180.068979,180.0903601,180.0903601,180.0903601,180.6009995,180.6009995,181.50267380000003,['m'],[1.4022269999999821],[None],179.88465740000004,180.0903601,,,,,,,,,,,,,,,,,,,,,,,,,,,,,,,,,,,,,,,,,,,,,,,,,,,,,,,,,,,,,,,,,,,,,,,,,,,,,,,958162,001,2024-08-01_10h03.11.420,final,2024.1.5,None,2024-08-01 10h03.17.721136 +0530,
images/5n.tiff,images/10n.tiff,,,,,,,2,0,12,1,,,,,,,,,,,,,181.5174609,,,,,,,,,,,,,,,,,,,,,,,,,,,,,,,,,,181.50427510000003,181.5174609,182.00158340000002,182.00163129999999,182.01732200000004,182.2015085,182.20156120000001,182.22301070000003,182.22301070000003,182.22301070000003,182.7334932,182.7334932,183.56954860000002,['m'],[1.3414860999999974],[None],182.01732200000004,182.22301070000003,,,,,,,,,,,,,,,,,,,,,,,,,,,,,,,,,,,,,,,,,,,,,,,,,,,,,,,,,,,,,,,,,,,,,,,,,,,,,,,958162,001,2024-08-01_10h03.11.420,final,2024.1.5,None,2024-08-01 10h03.17.721136 +0530,
images/5n.tiff,images/5n.tiff,,,,,,,2,1,13,4,,,,,,,,,,,,,183.5833915,,,,,,,,,,,,,,,,,,,,,,,,,,,,,,,,,,183.57046710000003,183.5833915,184.06763610000002,184.0676825,184.0832845,184.26756190000003,184.26760870000004,184.28932430000003,184.28932430000003,184.28932430000003,184.79963380000004,184.79963380000004,185.1683385,['z'],[0.8673255999999583],[None],184.0832845,184.28932430000003,,,,,,,,,,,,,,,,,,,,,,,,,,,,,,,,,,,,,,,,,,,,,,,,,,,,,,,,,,,,,,,,,,,,,,,,,,,,,,,958162,001,2024-08-01_10h03.11.420,final,2024.1.5,None,2024-08-01 10h03.17.721136 +0530,
images/5n.tiff,images/5n.tiff,,,,,,,2,2,14,0,,,,,,,,,,,,,185.1829384,,,,,,,,,,,,,,,,,,,,,,,,,,,,,,,,,,185.1699431,185.1829384,185.66730080000002,185.6673507,185.682795,185.86708900000002,185.86713650000002,185.8892568,185.8892568,185.8892568,186.39912630000003,186.39912630000003,186.9176733,['z'],[1.0201741000000197],[None],185.682795,185.8892568,,,,,,,,,,,,,,,,,,,,,,,,,,,,,,,,,,,,,,,,,,,,,,,,,,,,,,,,,,,,,,,,,,,,,,,,,,,,,,,958162,001,2024-08-01_10h03.11.420,final,2024.1.5,None,2024-08-01 10h03.17.721136 +0530,
images/10n.tiff,images/10n.tiff,,,,,,,2,3,15,2,,,,,,,,,,,,,186.93227490000004,,,,,,,,,,,,,,,,,,,,,,,,,,,,,,,,,,186.9192825,186.93227490000004,187.4165342,187.4165805,187.43220210000004,187.6165307,187.6165802,187.63843400000002,187.63843400000002,187.63843400000002,188.14851630000004,188.14851630000004,188.7835778,['z'],[1.1338479000000348],[None],187.43220210000004,187.63843400000002,,,,,,,,,,,,,,,,,,,,,,,,,,,,,,,,,,,,,,,,,,,,,,,,,,,,,,,,,,,,,,,,,,,,,,,,,,,,,,,958162,001,2024-08-01_10h03.11.420,final,2024.1.5,None,2024-08-01 10h03.17.721136 +0530,
images/10n.tiff,images/10n.tiff,,,,,,,2,4,16,5,,,,,,,,,,,,,188.798268,,,,,,,,,,,,,,,,,,,,,,,,,,,,,,,,,,188.78504960000004,188.798268,189.28246710000002,189.2825107,189.29815710000003,189.48246090000004,189.482506,189.50494710000004,189.50494710000004,189.50494710000004,190.014676,190.014676,190.43344380000002,['z'],[0.9236941999999999],[None],189.29815710000003,189.50494710000004,,,,,,,,,,,,,,,,,,,,,,,,,,,,,,,,,,,,,,,,,,,,,,,,,,,,,,,,,,,,,,,,,,,,,,,,,,,,,,,958162,001,2024-08-01_10h03.11.420,final,2024.1.5,None,2024-08-01 10h03.17.721136 +0530,
images/10n.tiff,images/5n.tiff,,,,,,,2,5,17,3,,,,,,,,,,,,,190.4477763,,,,,,,,,,,,,,,,,,,,,,,,,,,,,,,,,,190.43491840000002,190.4477763,190.93197609999999,190.93202160000004,190.9475819,191.13208130000004,191.1321271,191.1544253,191.1544253,191.1544253,191.6641712,191.6641712,192.1658678,['m'],[0.9940663999999515],[None],190.9475819,191.1544253,,,,,,,,,,,,,,,,,,,,,,,,,,,,,,,,,,,,,,,,,,,,,,,,,,,,,,,,,,,,,,,,,,,,,,,,,,,,,,,958162,001,2024-08-01_10h03.11.420,final,2024.1.5,None,2024-08-01 10h03.17.721136 +0530,
images/5n.tiff,images/5n.tiff,,,,,,,3,0,18,0,,,,,,,,,,,,,192.18061370000004,,,,,,,,,,,,,,,,,,,,,,,,,,,,,,,,,,192.1673495,192.18061370000004,192.66477830000002,192.664825,192.6804818,192.8646797,192.8647231,192.88668660000002,192.88668660000002,192.88668660000002,193.3969277,193.3969277,193.7320269,['z'],[0.8301670000000172],[None],192.6804818,192.88668660000002,,,,,,,,,,,,,,,,,,,,,,,,,,,,,,,,,,,,,,,,,,,,,,,,,,,,,,,,,,,,,,,,,,,,,,,,,,,,,,,958162,001,2024-08-01_10h03.11.420,final,2024.1.5,None,2024-08-01 10h03.17.721136 +0530,
images/10n.tiff,images/10n.tiff,,,,,,,3,1,19,5,,,,,,,,,,,,,193.74672520000001,,,,,,,,,,,,,,,,,,,,,,,,,,,,,,,,,,193.73349640000004,193.74672520000001,194.23092730000002,194.23097440000004,194.24651599999999,194.43082880000003,194.4308701,194.4520273,194.4520273,194.4520273,194.96310040000003,194.96310040000003,195.51501030000003,['z'],[1.0560140999999703],[None],194.24651599999999,194.4520273,,,,,,,,,,,,,,,,,,,,,,,,,,,,,,,,,,,,,,,,,,,,,,,,,,,,,,,,,,,,,,,,,,,,,,,,,,,,,,,958162,001,2024-08-01_10h03.11.420,final,2024.1.5,None,2024-08-01 10h03.17.721136 +0530,
images/5n.tiff,images/10n.tiff,,,,,,,3,2,20,1,,,,,,,,,,,,,195.52955400000002,,,,,,,,,,,,,,,,,,,,,,,,,,,,,,,,,,195.51659670000004,195.52955400000002,196.0136576,196.01369820000002,196.029341,196.2135841,196.21362870000002,196.2361715,196.2361715,196.2361715,196.74572,196.74572,198.1139404,['m'],[1.8721465000000421],[None],196.029341,196.2361715,,,,,,,,,,,,,,,,,,,,,,,,,,,,,,,,,,,,,,,,,,,,,,,,,,,,,,,,,,,,,,,,,,,,,,,,,,,,,,,958162,001,2024-08-01_10h03.11.420,final,2024.1.5,None,2024-08-01 10h03.17.721136 +0530,
images/10n.tiff,images/5n.tiff,,,,,,,3,3,21,3,,,,,,,,,,,,,198.12867590000002,,,,,,,,,,,,,,,,,,,,,,,,,,,,,,,,,,198.11544430000004,198.12867590000002,198.61283680000003,198.6128799,198.6284682,198.812722,198.8127624,198.83413660000002,198.83413660000002,198.83413660000002,199.34488930000003,199.34488930000003,200.09659190000002,['m'],[1.2507390999999757],[None],198.6284682,198.83413660000002,,,,,,,,,,,,,,,,,,,,,,,,,,,,,,,,,,,,,,,,,,,,,,,,,,,,,,,,,,,,,,,,,,,,,,,,,,,,,,,958162,001,2024-08-01_10h03.11.420,final,2024.1.5,None,2024-08-01 10h03.17.721136 +0530,
images/5n.tiff,images/5n.tiff,,,,,,,3,4,22,4,,,,,,,,,,,,,200.1113307,,,,,,,,,,,,,,,,,,,,,,,,,,,,,,,,,,200.09815400000002,200.1113307,200.59544470000003,200.59548890000002,200.61111440000002,200.7953581,200.7954011,200.8163943,200.8163943,200.8163943,201.3276459,201.3276459,201.64617200000004,['z'],[0.8122936999999979],[None],200.61111440000002,200.8163943,,,,,,,,,,,,,,,,,,,,,,,,,,,,,,,,,,,,,,,,,,,,,,,,,,,,,,,,,,,,,,,,,,,,,,,,,,,,,,,958162,001,2024-08-01_10h03.11.420,final,2024.1.5,None,2024-08-01 10h03.17.721136 +0530,
images/10n.tiff,images/10n.tiff,,,,,,,3,5,23,2,,,,,,,,,,,,,201.66086660000002,,,,,,,,,,,,,,,,,,,,,,,,,,,,,,,,,,201.64769240000004,201.66086660000002,202.1449159,202.14495980000004,202.1607133,202.34491350000002,202.34495850000002,202.3673124,202.3673124,202.3673124,202.87713230000003,202.87713230000003,203.41224210000001,['z'],[1.028987299999983],[None],202.1607133,202.3673124,,,,,,,,,,,,,,,,,,,,,,,,,,,,,,,,,,,,,,,,,,,,,,,,,,,,,,,,,,,,,,,,,,,,,,,,,,,,,,,958162,001,2024-08-01_10h03.11.420,final,2024.1.5,None,2024-08-01 10h03.17.721136 +0530,
images/5n.tiff,images/5n.tiff,,,,,,,4,0,24,0,,,,,,,,,,,,,203.4269228,,,,,,,,,,,,,,,,,,,,,,,,,,,,,,,,,,203.41373950000002,203.4269228,203.9109995,203.91104360000003,203.92676690000002,204.1110466,204.1110936,204.13344419999999,204.13344419999999,204.13344419999999,204.64318810000003,204.64318810000003,205.06200060000003,['z'],[0.9108694999999898],[None],203.92676690000002,204.13344419999999,,,,,,,,,,,,,,,,,,,,,,,,,,,,,,,,,,,,,,,,,,,,,,,,,,,,,,,,,,,,,,,,,,,,,,,,,,,,,,,958162,001,2024-08-01_10h03.11.420,final,2024.1.5,None,2024-08-01 10h03.17.721136 +0530,
images/10n.tiff,images/10n.tiff,,,,,,,4,1,25,2,,,,,,,,,,,,,205.0764003,,,,,,,,,,,,,,,,,,,,,,,,,,,,,,,,,,205.0634837,205.0764003,205.5608226,205.5608702,205.5762699,205.760622,205.760669,205.7835493,205.7835493,205.7835493,206.29262620000003,206.29262620000003,207.92746270000004,['z'],[2.132724499999995],[None],205.5762699,205.7835493,,,,,,,,,,,,,,,,,,,,,,,,,,,,,,,,,,,,,,,,,,,,,,,,,,,,,,,,,,,,,,,,,,,,,,,,,,,,,,,958162,001,2024-08-01_10h03.11.420,final,2024.1.5,None,2024-08-01 10h03.17.721136 +0530,
images/5n.tiff,images/10n.tiff,,,,,,,4,2,26,1,,,,,,,,,,,,,207.9421046,,,,,,,,,,,,,,,,,,,,,,,,,,,,,,,,,,207.92896890000003,207.9421046,208.4262754,208.42632200000003,208.44192680000003,208.62636760000004,208.626418,208.6493013,208.6493013,208.6493013,209.15843660000002,209.15843660000002,209.5435868,['m'],[0.8829295999999545],[None],208.44192680000003,208.6493013,,,,,,,,,,,,,,,,,,,,,,,,,,,,,,,,,,,,,,,,,,,,,,,,,,,,,,,,,,,,,,,,,,,,,,,,,,,,,,,958162,001,2024-08-01_10h03.11.420,final,2024.1.5,None,2024-08-01 10h03.17.721136 +0530,
images/10n.tiff,images/10n.tiff,,,,,,,4,3,27,5,,,,,,,,,,,,,209.55827270000003,,,,,,,,,,,,,,,,,,,,,,,,,,,,,,,,,,209.5450576,209.55827270000003,210.0424709,210.04251670000002,210.05813870000003,210.24238990000003,210.2424378,210.265194,210.265194,210.265194,210.77431790000003,210.77431790000003,211.25917850000002,['z'],[0.9876378000000159],[None],210.05813870000003,210.265194,,,,,,,,,,,,,,,,,,,,,,,,,,,,,,,,,,,,,,,,,,,,,,,,,,,,,,,,,,,,,,,,,,,,,,,,,,,,,,,958162,001,2024-08-01_10h03.11.420,final,2024.1.5,None,2024-08-01 10h03.17.721136 +0530,
images/5n.tiff,images/5n.tiff,,,,,,,4,4,28,4,,,,,,,,,,,,,211.27431710000002,,,,,,,,,,,,,,,,,,,,,,,,,,,,,,,,,,211.2597394,211.27431710000002,211.7586131,211.75865950000002,211.7742113,211.9587077,211.9587563,211.9808008,211.9808008,211.9808008,212.4905733,212.4905733,212.94309930000003,['z'],[0.9598831999999788],[None],211.7742113,211.9808008,,,,,,,,,,,,,,,,,,,,,,,,,,,,,,,,,,,,,,,,,,,,,,,,,,,,,,,,,,,,,,,,,,,,,,,,,,,,,,,958162,001,2024-08-01_10h03.11.420,final,2024.1.5,None,2024-08-01 10h03.17.721136 +0530,
images/10n.tiff,images/5n.tiff,,,,,,,4,5,29,3,,,,,,,,,,,,,212.95718220000003,,,,,,,,,,,,,,,,,,,,,,,,,,,,,,,,,,212.9446041,212.95718220000003,213.44131630000004,213.4413632,213.45701790000004,213.6413078,213.64135220000003,213.6632652,213.6632652,213.6632652,214.17344510000004,214.17344510000004,214.54203990000002,['m'],[0.8688077999999564],[None],213.45701790000004,213.6632652,,,,,,,,,,,,,,,,,,,,,,,,,,,,,,,,,,,,,,,,,,,,,,,,,,,,,,,,,,,,,,,,,,,,,,,,,,,,,,,958162,001,2024-08-01_10h03.11.420,final,2024.1.5,None,2024-08-01 10h03.17.721136 +0530,
images/10n.tiff,images/10n.tiff,,,,,,,5,0,30,2,,,,,,,,,,,,,214.55663580000004,,,,,,,,,,,,,,,,,,,,,,,,,,,,,,,,,,214.5436057,214.55663580000004,215.0407111,215.04075770000003,215.0564301,215.2407182,215.24076580000002,215.26347980000003,215.26347980000003,215.26347980000003,215.77297520000002,215.77297520000002,216.3577573,['z'],[1.076792399999988],[None],215.0564301,215.26347980000003,,,,,,,,,,,,,,,,,,,,,,,,,,,,,,,,,,,,,,,,,,,,,,,,,,,,,,,,,,,,,,,,,,,,,,,,,,,,,,,958162,001,2024-08-01_10h03.11.420,final,2024.1.5,None,2024-08-01 10h03.17.721136 +0530,
images/10n.tiff,images/5n.tiff,,,,,,,5,1,31,3,,,,,,,,,,,,,216.37271680000003,,,,,,,,,,,,,,,,,,,,,,,,,,,,,,,,,,216.35925070000002,216.37271680000003,216.8568376,216.8568846,216.87257240000002,217.0567489,217.05678850000004,217.07779270000003,217.07779270000003,217.07779270000003,217.58888490000004,217.58888490000004,217.99095110000002,['m'],[0.9029041000000007],[None],216.87257240000002,217.07779270000003,,,,,,,,,,,,,,,,,,,,,,,,,,,,,,,,,,,,,,,,,,,,,,,,,,,,,,,,,,,,,,,,,,,,,,,,,,,,,,,958162,001,2024-08-01_10h03.11.420,final,2024.1.5,None,2024-08-01 10h03.17.721136 +0530,
images/5n.tiff,images/5n.tiff,,,,,,,5,2,32,0,,,,,,,,,,,,,218.0055345,,,,,,,,,,,,,,,,,,,,,,,,,,,,,,,,,,217.9924239,218.0055345,218.48961130000004,218.48965450000003,218.5053775,218.68856870000002,218.6885838,218.70646090000002,218.70646090000002,218.70646090000002,219.2217486,219.2217486,219.6900925,['z'],[0.9774769999999648],[None],218.5053775,218.70646090000002,,,,,,,,,,,,,,,,,,,,,,,,,,,,,,,,,,,,,,,,,,,,,,,,,,,,,,,,,,,,,,,,,,,,,,,,,,,,,,,958162,001,2024-08-01_10h03.11.420,final,2024.1.5,None,2024-08-01 10h03.17.721136 +0530,
images/10n.tiff,images/10n.tiff,,,,,,,5,3,33,5,,,,,,,,,,,,,219.70492920000004,,,,,,,,,,,,,,,,,,,,,,,,,,,,,,,,,,219.6916048,219.70492920000004,220.188853,220.1888879,220.20478180000003,220.38906580000003,220.3891142,220.4121912,220.4121912,220.4121912,220.9212101,220.9212101,221.4732333,['z'],[1.0492595000000051],[None],220.20478180000003,220.4121912,,,,,,,,,,,,,,,,,,,,,,,,,,,,,,,,,,,,,,,,,,,,,,,,,,,,,,,,,,,,,,,,,,,,,,,,,,,,,,,958162,001,2024-08-01_10h03.11.420,final,2024.1.5,None,2024-08-01 10h03.17.721136 +0530,
images/5n.tiff,images/5n.tiff,,,,,,,5,4,34,4,,,,,,,,,,,,,221.4875755,,,,,,,,,,,,,,,,,,,,,,,,,,,,,,,,,,221.47473960000002,221.4875755,221.9718788,221.9719248,221.9874643,222.17187810000001,222.17192440000002,222.1942128,222.1942128,222.1942128,222.70394520000002,222.70394520000002,223.15574280000004,['z'],[0.9538221000000249],[None],221.9874643,222.1942128,,,,,,,,,,,,,,,,,,,,,,,,,,,,,,,,,,,,,,,,,,,,,,,,,,,,,,,,,,,,,,,,,,,,,,,,,,,,,,,958162,001,2024-08-01_10h03.11.420,final,2024.1.5,None,2024-08-01 10h03.17.721136 +0530,
images/5n.tiff,images/10n.tiff,,,,,,,5,5,35,1,,,,,,,,,,,,,223.17045590000004,,,,,,,,,,,,,,,,,,,,,,,,,,,,,,,,,,223.1572347,223.17045590000004,223.6548082,223.6548583,223.67035950000002,223.8547433,223.85479020000002,223.87652830000002,223.87652830000002,223.87652830000002,224.38668940000002,224.38668940000002,224.78835170000002,['m'],[0.8962260999999785],[None],223.67035950000002,223.87652830000002,,,,,,,,,,,,,,,,,,,,,,,,,,,,,,,,,,,,,,,,,,,,,,,,,,,,,,,,,,,,,,,,,,,,,,,,,,,,,,,958162,001,2024-08-01_10h03.11.420,final,2024.1.5,None,2024-08-01 10h03.17.721136 +0530,
images/5n.tiff,images/10n.tiff,,,,,,,6,0,36,1,,,,,,,,,,,,,224.80329620000003,,,,,,,,,,,,,,,,,,,,,,,,,,,,,,,,,,224.7898298,224.80329620000003,225.28727200000003,225.2873146,225.3031426,225.4872906,225.48733020000003,225.5088611,225.5088611,225.5088611,226.01957900000002,226.01957900000002,226.45506110000002,['m'],[0.9354557000000341],[None],225.3031426,225.5088611,,,,,,,,,,,,,,,,,,,,,,,,,,,,,,,,,,,,,,,,,,,,,,,,,,,,,,,,,,,,,,,,,,,,,,,,,,,,,,,958162,001,2024-08-01_10h03.11.420,final,2024.1.5,None,2024-08-01 10h03.17.721136 +0530,
images/10n.tiff,images/10n.tiff,,,,,,,6,1,37,2,,,,,,,,,,,,,226.46931740000002,,,,,,,,,,,,,,,,,,,,,,,,,,,,,,,,,,226.45670390000004,226.46931740000002,226.9537755,226.95382310000002,226.9692597,227.1536476,227.1536906,227.1743055,227.1743055,227.1743055,227.68558160000003,227.68558160000003,228.17096800000002,['z'],[0.9823733000000061],[None],226.9692597,227.1743055,,,,,,,,,,,,,,,,,,,,,,,,,,,,,,,,,,,,,,,,,,,,,,,,,,,,,,,,,,,,,,,,,,,,,,,,,,,,,,,958162,001,2024-08-01_10h03.11.420,final,2024.1.5,None,2024-08-01 10h03.17.721136 +0530,
images/5n.tiff,images/5n.tiff,,,,,,,6,2,38,4,,,,,,,,,,,,,228.18543950000003,,,,,,,,,,,,,,,,,,,,,,,,,,,,,,,,,,228.17243580000002,228.18543950000003,228.66974300000004,228.6697898,228.6852973,228.86972100000003,228.86976630000004,228.89271990000003,228.89271990000003,228.89271990000003,229.40181340000004,229.40181340000004,230.2534999,['z'],[1.351292600000022],[None],228.6852973,228.89271990000003,,,,,,,,,,,,,,,,,,,,,,,,,,,,,,,,,,,,,,,,,,,,,,,,,,,,,,,,,,,,,,,,,,,,,,,,,,,,,,,958162,001,2024-08-01_10h03.11.420,final,2024.1.5,None,2024-08-01 10h03.17.721136 +0530,
images/10n.tiff,images/10n.tiff,,,,,,,6,3,39,5,,,,,,,,,,,,,230.2681821,,,,,,,,,,,,,,,,,,,,,,,,,,,,,,,,,,230.2552015,230.2681821,230.7519686,230.75201020000003,230.7676877,230.952384,230.95243140000002,230.9756471,230.9756471,230.9756471,231.4844059,231.4844059,231.7198454,['z'],[0.7327356000000123],[None],230.7676877,230.9756471,,,,,,,,,,,,,,,,,,,,,,,,,,,,,,,,,,,,,,,,,,,,,,,,,,,,,,,,,,,,,,,,,,,,,,,,,,,,,,,958162,001,2024-08-01_10h03.11.420,final,2024.1.5,None,2024-08-01 10h03.17.721136 +0530,
images/5n.tiff,images/5n.tiff,,,,,,,6,4,40,0,,,,,,,,,,,,,231.73429850000002,,,,,,,,,,,,,,,,,,,,,,,,,,,,,,,,,,231.7214138,231.73429850000002,232.2185811,232.21862670000002,232.2341369,232.4184811,232.4185273,232.44001810000003,232.44001810000003,232.44001810000003,232.9506396,232.9506396,233.15254120000003,['z'],[0.7009087999999792],[None],232.2341369,232.44001810000003,,,,,,,,,,,,,,,,,,,,,,,,,,,,,,,,,,,,,,,,,,,,,,,,,,,,,,,,,,,,,,,,,,,,,,,,,,,,,,,958162,001,2024-08-01_10h03.11.420,final,2024.1.5,None,2024-08-01 10h03.17.721136 +0530,
images/10n.tiff,images/5n.tiff,,,,,,,6,5,41,3,,,,,,,,,,,,,233.16722190000002,,,,,,,,,,,,,,,,,,,,,,,,,,,,,,,,,,233.1541616,233.16722190000002,233.6511158,233.6511436,233.6670479,233.8513415,233.85138850000004,233.87315110000003,233.87315110000003,233.87315110000003,234.38338450000003,234.38338450000003,234.66885100000002,['m'],[0.779295100000013],[None],233.6670479,233.87315110000003,,,,,,,,,,,,,,,,,,,,,,,,,,,,,,,,,,,,,,,,,,,,,,,,,,,,,,,,,,,,,,,,,,,,,,,,,,,,,,,958162,001,2024-08-01_10h03.11.420,final,2024.1.5,None,2024-08-01 10h03.17.721136 +0530,
images/5n.tiff,images/5n.tiff,,,,,,,7,0,42,4,,,,,,,,,,,,,234.68331890000002,,,,,,,,,,,,,,,,,,,,,,,,,,,,,,,,,,234.6701594,234.68331890000002,235.16770180000003,235.1677495,235.18310200000002,235.3675837,235.36763060000004,235.38987250000002,235.38987250000002,235.38987250000002,235.89965790000002,235.89965790000002,236.21817270000003,['z'],[0.8221546999999987],[None],235.18310200000002,235.38987250000002,,,,,,,,,,,,,,,,,,,,,,,,,,,,,,,,,,,,,,,,,,,,,,,,,,,,,,,,,,,,,,,,,,,,,,,,,,,,,,,958162,001,2024-08-01_10h03.11.420,final,2024.1.5,None,2024-08-01 10h03.17.721136 +0530,
images/10n.tiff,images/5n.tiff,,,,,,,7,1,43,3,,,,,,,,,,,,,236.2327801,,,,,,,,,,,,,,,,,,,,,,,,,,,,,,,,,,236.21964460000004,236.2327801,236.7170949,236.71713520000003,236.7326213,236.91711980000002,236.917167,236.93881780000004,236.93881780000004,236.93881780000004,237.449157,237.449157,238.2510803,['m'],[1.2975905000000125],[None],236.7326213,236.93881780000004,,,,,,,,,,,,,,,,,,,,,,,,,,,,,,,,,,,,,,,,,,,,,,,,,,,,,,,,,,,,,,,,,,,,,,,,,,,,,,,958162,001,2024-08-01_10h03.11.420,final,2024.1.5,None,2024-08-01 10h03.17.721136 +0530,
images/10n.tiff,images/10n.tiff,,,,,,,7,2,44,5,,,,,,,,,,,,,238.26555080000003,,,,,,,,,,,,,,,,,,,,,,,,,,,,,,,,,,238.2526401,238.26555080000003,238.74977920000003,238.74982600000004,238.76541020000002,238.94963690000003,238.94968210000002,238.9722304,238.9722304,238.9722304,239.48171590000004,239.48171590000004,239.8005298,['z'],[0.816508199999987],[None],238.76541020000002,238.9722304,,,,,,,,,,,,,,,,,,,,,,,,,,,,,,,,,,,,,,,,,,,,,,,,,,,,,,,,,,,,,,,,,,,,,,,,,,,,,,,958162,001,2024-08-01_10h03.11.420,final,2024.1.5,None,2024-08-01 10h03.17.721136 +0530,
images/5n.tiff,images/5n.tiff,,,,,,,7,3,45,0,,,,,,,,,,,,,239.81499430000002,,,,,,,,,,,,,,,,,,,,,,,,,,,,,,,,,,239.80206090000001,239.81499430000002,240.2991945,240.29924600000004,240.3148728,240.49919110000002,240.49923720000004,240.5212095,240.5212095,240.5212095,241.0311845,241.0311845,241.29974320000002,['z'],[0.7627772000000164],[None],240.3148728,240.5212095,,,,,,,,,,,,,,,,,,,,,,,,,,,,,,,,,,,,,,,,,,,,,,,,,,,,,,,,,,,,,,,,,,,,,,,,,,,,,,,958162,001,2024-08-01_10h03.11.420,final,2024.1.5,None,2024-08-01 10h03.17.721136 +0530,
images/5n.tiff,images/10n.tiff,,,,,,,7,4,46,1,,,,,,,,,,,,,241.31454760000003,,,,,,,,,,,,,,,,,,,,,,,,,,,,,,,,,,241.3012397,241.31454760000003,241.7987999,241.7988438,241.8143642,241.99863880000004,241.9986854,242.02069040000003,242.02069040000003,242.02069040000003,242.530728,242.530728,242.93260930000002,['m'],[0.8952567999999701],[None],241.8143642,242.02069040000003,,,,,,,,,,,,,,,,,,,,,,,,,,,,,,,,,,,,,,,,,,,,,,,,,,,,,,,,,,,,,,,,,,,,,,,,,,,,,,,958162,001,2024-08-01_10h03.11.420,final,2024.1.5,None,2024-08-01 10h03.17.721136 +0530,
images/10n.tiff,images/10n.tiff,,,,,,,7,5,47,2,,,,,,,,,,,,,242.9473496,,,,,,,,,,,,,,,,,,,,,,,,,,,,,,,,,,242.93412290000003,242.9473496,243.43138820000001,243.43143480000003,243.4471767,243.63142670000002,243.6314741,243.6536896,243.6536896,243.6536896,244.1636123,244.1636123,244.7656439,['z'],[1.1025881000000481],[None],243.4471767,243.6536896,,,,,,,,,,,,,,,,,,,,,,,,,,,,,,,,,,,,,,,,,,,,,,,,,,,,,,,,,,,,,,,,,,,,,,,,,,,,,,,958162,001,2024-08-01_10h03.11.420,final,2024.1.5,None,2024-08-01 10h03.17.721136 +0530,
images/10n.tiff,images/5n.tiff,,,,,,,8,0,48,3,,,,,,,,,,,,,244.779948,,,,,,,,,,,,,,,,,,,,,,,,,,,,,,,,,,244.7672581,244.779948,245.2642416,245.2642887,245.27984280000004,245.4643696,245.46441830000003,245.48592330000002,245.48592330000002,245.48592330000002,245.99635130000001,245.99635130000001,246.43162620000004,['m'],[0.9340836000000081],[None],245.27984280000004,245.48592330000002,,,,,,,,,,,,,,,,,,,,,,,,,,,,,,,,,,,,,,,,,,,,,,,,,,,,,,,,,,,,,,,,,,,,,,,,,,,,,,,958162,001,2024-08-01_10h03.11.420,final,2024.1.5,None,2024-08-01 10h03.17.721136 +0530,
images/5n.tiff,images/5n.tiff,,,,,,,8,1,49,4,,,,,,,,,,,,,246.44615830000004,,,,,,,,,,,,,,,,,,,,,,,,,,,,,,,,,,246.4329826,246.44615830000004,246.93027290000003,246.9303193,246.9460507,247.1301004,247.1301434,247.15108150000003,247.15108150000003,247.15108150000003,247.66247420000002,247.66247420000002,248.43127270000002,['z'],[1.2775540000000092],[None],246.9460507,247.15108150000003,,,,,,,,,,,,,,,,,,,,,,,,,,,,,,,,,,,,,,,,,,,,,,,,,,,,,,,,,,,,,,,,,,,,,,,,,,,,,,,958162,001,2024-08-01_10h03.11.420,final,2024.1.5,None,2024-08-01 10h03.17.721136 +0530,
images/10n.tiff,images/10n.tiff,,,,,,,8,2,50,2,,,,,,,,,,,,,248.4454119,,,,,,,,,,,,,,,,,,,,,,,,,,,,,,,,,,248.43275490000002,248.4454119,248.92962820000002,248.9296769,248.9453848,249.12950870000003,249.12955220000003,249.1515483,249.1515483,249.1515483,249.6617271,249.6617271,250.1800382,['z'],[1.0203831999999693],[None],248.9453848,249.1515483,,,,,,,,,,,,,,,,,,,,,,,,,,,,,,,,,,,,,,,,,,,,,,,,,,,,,,,,,,,,,,,,,,,,,,,,,,,,,,,958162,001,2024-08-01_10h03.11.420,final,2024.1.5,None,2024-08-01 10h03.17.721136 +0530,
images/5n.tiff,images/10n.tiff,,,,,,,8,3,51,1,,,,,,,,,,,,,250.19495360000002,,,,,,,,,,,,,,,,,,,,,,,,,,,,,,,,,,250.1815065,250.19495360000002,250.6789559,250.67899590000002,250.69478100000003,250.87896110000003,250.8790202,250.9021254,250.9021254,250.9021254,251.4112584,251.4112584,282.5528049,['m'],[31.63952290000003],[None],250.69478100000003,250.9021254,,,,,,,,,,,,,,,,,,,,,,,,,,,,,,,,,,,,,,,,,,,,,,,,,,,,,,,,,,,,,,,,,,,,,,,,,,,,,,,958162,001,2024-08-01_10h03.11.420,final,2024.1.5,None,2024-08-01 10h03.17.721136 +0530,
images/10n.tiff,images/10n.tiff,,,,,,,8,4,52,5,,,,,,,,,,,,,282.5675116,,,,,,,,,,,,,,,,,,,,,,,,,,,,,,,,,,282.5542264,282.5675116,283.051952,283.0519996,283.0674646,283.25186640000004,283.2519102,283.2911502,283.2911502,283.2911502,283.8006366,283.8006366,284.1526152,['z'],[0.8495060000000194],[None],283.0674646,283.2911502,,,,,,,,,,,,,,,,,,,,,,,,,,,,,,,,,,,,,,,,,,,,,,,,,,,,,,,,,,,,,,,,,,,,,,,,,,,,,,,958162,001,2024-08-01_10h03.11.420,final,2024.1.5,None,2024-08-01 10h03.17.721136 +0530,
images/5n.tiff,images/5n.tiff,,,,,,,8,5,53,0,,,,,,,,,,,,,284.1670058,,,,,,,,,,,,,,,,,,,,,,,,,,,,,,,,,,284.1540374,284.1670058,284.65120410000003,284.6512424,284.6668424,284.851267,284.85131340000004,284.8724252,284.8724252,284.8724252,285.3834187,285.3834187,285.6018472,['z'],[0.7243970000000104],[None],284.6668424,284.8724252,,,,,,,,,,,,,,,,,,,,,,,,,,,,,,,,,,,,,,,,,,,,,,,,,,,,,,,,,,,,,,,,,,,,,,,,,,,,,,,958162,001,2024-08-01_10h03.11.420,final,2024.1.5,None,2024-08-01 10h03.17.721136 +0530,
images/10n.tiff,images/5n.tiff,,,,,,,9,0,54,3,,,,,,,,,,,,,285.6165246,,,,,,,,,,,,,,,,,,,,,,,,,,,,,,,,,,285.60334950000004,285.6165246,286.1007996,286.1008403,286.11644920000003,286.3007518,286.3007895,286.321096,286.321096,286.321096,286.8329344,286.8329344,287.2177189,['m'],[0.8834522999999876],[None],286.11644920000003,286.321096,,,,,,,,,,,,,,,,,,,,,,,,,,,,,,,,,,,,,,,,,,,,,,,,,,,,,,,,,,,,,,,,,,,,,,,,,,,,,,,958162,001,2024-08-01_10h03.11.420,final,2024.1.5,None,2024-08-01 10h03.17.721136 +0530,
images/10n.tiff,images/10n.tiff,,,,,,,9,1,55,2,,,,,,,,,,,,,287.2325136,,,,,,,,,,,,,,,,,,,,,,,,,,,,,,,,,,287.21922470000004,287.2325136,287.7168333,287.7168744,287.7324868,287.9166485,287.91668400000003,287.9368943,287.9368943,287.9368943,288.4490776,288.4490776,288.58422590000004,['z'],[0.6432465999999977],[None],287.7324868,287.9368943,,,,,,,,,,,,,,,,,,,,,,,,,,,,,,,,,,,,,,,,,,,,,,,,,,,,,,,,,,,,,,,,,,,,,,,,,,,,,,,958162,001,2024-08-01_10h03.11.420,final,2024.1.5,None,2024-08-01 10h03.17.721136 +0530,
images/5n.tiff,images/5n.tiff,,,,,,,9,2,56,4,,,,,,,,,,,,,288.5989548,,,,,,,,,,,,,,,,,,,,,,,,,,,,,,,,,,288.5857864,288.5989548,289.0832347,289.0832879,289.098862,289.2831331,289.2831764,289.303402,289.303402,289.303402,289.81525300000004,289.81525300000004,289.9504716,['z'],[0.6372193999999922],[None],289.098862,289.303402,,,,,,,,,,,,,,,,,,,,,,,,,,,,,,,,,,,,,,,,,,,,,,,,,,,,,,,,,,,,,,,,,,,,,,,,,,,,,,,958162,001,2024-08-01_10h03.11.420,final,2024.1.5,None,2024-08-01 10h03.17.721136 +0530,
images/10n.tiff,images/10n.tiff,,,,,,,9,3,57,5,,,,,,,,,,,,,289.9650883,,,,,,,,,,,,,,,,,,,,,,,,,,,,,,,,,,289.951846,289.9650883,290.4495183,290.4495647,290.464994,290.64927850000004,290.6493179,290.6704355,290.6704355,290.6704355,291.18127730000003,291.18127730000003,291.4499224,['z'],[0.7737017000000037],[None],290.464994,290.6704355,,,,,,,,,,,,,,,,,,,,,,,,,,,,,,,,,,,,,,,,,,,,,,,,,,,,,,,,,,,,,,,,,,,,,,,,,,,,,,,958162,001,2024-08-01_10h03.11.420,final,2024.1.5,None,2024-08-01 10h03.17.721136 +0530,
images/5n.tiff,images/10n.tiff,,,,,,,9,4,58,1,,,,,,,,,,,,,291.4646035,,,,,,,,,,,,,,,,,,,,,,,,,,,,,,,,,,291.4514431,291.4646035,291.94893060000004,291.9489722,291.96448810000004,292.14885300000003,292.1488911,292.1694003,292.1694003,292.1694003,292.6810105,292.6810105,293.0495508,['m'],[0.8667400999999586],[None],291.96448810000004,292.1694003,,,,,,,,,,,,,,,,,,,,,,,,,,,,,,,,,,,,,,,,,,,,,,,,,,,,,,,,,,,,,,,,,,,,,,,,,,,,,,,958162,001,2024-08-01_10h03.11.420,final,2024.1.5,None,2024-08-01 10h03.17.721136 +0530,
images/5n.tiff,images/5n.tiff,,,,,,,9,5,59,0,,,,,,,,,,,,,293.06407640000003,,,,,,,,,,,,,,,,,,,,,,,,,,,,,,,,,,293.0510264,293.06407640000003,293.548467,293.5485138,293.5640439,293.7476874,293.7477008,293.7669909,293.7669909,293.7669909,294.28053040000003,294.28053040000003,294.3990144,['z'],[0.6217253000000369],[None],293.5640439,293.7669909,,,,,,,,,,,,,,,,,,,,,,,,,,,,,,,,,,,,,,,,,,,,,,,,,,,,,,,,,,,,,,,,,,,,,,,,,,,,,,,958162,001,2024-08-01_10h03.11.420,final,2024.1.5,None,2024-08-01 10h03.17.721136 +0530,
,,,,,,,,,,,,,,,,,,,,,,,,,,,,,,,,,,,,,,,,,,,,,,,,,,,,,,,,,,,,,,,,,,,,,,,,,,,,294.399968,294.41371480000004,294.41371480000004,306.07844719999997,space,11.6626804,None,,,,,,,,,,,,,,,,,,,,,,,,,,,,,,,,,,,,,,,,,,,,,,,,,,,,,,,,,,,,,,,,,,,,,,,,958162,001,2024-08-01_10h03.11.420,final,2024.1.5,None,2024-08-01 10h03.17.721136 +0530,
images/18n.tiff,images/18n.tiff,,,,,,,,,,,0,0,0,3,,,,,,,,,306.09827480000007,,,,,,,,,,,,,,,,,,,,,,,,,,,,,,,,,,,,,,,,,,,,,,,,,,,,,,,,,,,306.09573670000003,306.09827480000007,306.59330470000003,306.5933439,306.6097167,306.7933102,306.79335069999996,306.8406177,306.8406177,306.8406177,307.3428899,307.3428899,310.57685040000007,['z'],[3.7235574000000042],[None],,,,,,,,,,,,,,,,,,,,,,,,,,,,,,,,,,,,,,,,,,,,,,,,,,,,,,,,958162,001,2024-08-01_10h03.11.420,final,2024.1.5,None,2024-08-01 10h03.17.721136 +0530,
images/18n.tiff,images/18n.tiff,,,,,,,,,,,0,1,1,5,,,,,,,,,310.59177389999996,,,,,,,,,,,,,,,,,,,,,,,,,,,,,,,,,,,,,,,,,,,,,,,,,,,,,,,,,,,310.57910899999996,310.59177389999996,311.0758444,311.07588430000004,311.09161720000003,311.2757767,311.2758148,311.2968715,311.2968715,311.2968715,311.8080243,311.8080243,312.44300319999996,['z'],[1.132099100000005],[None],311.09161720000003,311.2968715,,,,,,,,,,,,,,,,,,,,,,,,,,,,,,,,,,,,,,,,,,,,,,,,,,,,,,958162,001,2024-08-01_10h03.11.420,final,2024.1.5,None,2024-08-01 10h03.17.721136 +0530,
images/4n.tiff,images/18n.tiff,,,,,,,,,,,0,2,2,0,,,,,,,,,312.45774009999997,,,,,,,,,,,,,,,,,,,,,,,,,,,,,,,,,,,,,,,,,,,,,,,,,,,,,,,,,,,312.4445176,312.45774009999997,312.94197130000003,312.9420221,312.95760090000005,313.1419974,313.1420391,313.1628891,313.1628891,313.1628891,313.67417230000007,313.67417230000007,314.2590112,['m'],[1.089868700000011],[None],312.95760090000005,313.1628891,,,,,,,,,,,,,,,,,,,,,,,,,,,,,,,,,,,,,,,,,,,,,,,,,,,,,,958162,001,2024-08-01_10h03.11.420,final,2024.1.5,None,2024-08-01 10h03.17.721136 +0530,
images/18n.tiff,images/4n.tiff,,,,,,,,,,,0,3,3,2,,,,,,,,,314.27400030000007,,,,,,,,,,,,,,,,,,,,,,,,,,,,,,,,,,,,,,,,,,,,,,,,,,,,,,,,,,,314.2604995,314.27400030000007,314.7580174,314.75806670000003,314.77373660000006,314.9579025,314.95794010000003,314.97852660000007,314.97852660000007,314.97852660000007,315.4902067,315.4902067,316.6415093,['m'],[1.6574730999999474],[None],314.77373660000006,314.97852660000007,,,,,,,,,,,,,,,,,,,,,,,,,,,,,,,,,,,,,,,,,,,,,,,,,,,,,,958162,001,2024-08-01_10h03.11.420,final,2024.1.5,None,2024-08-01 10h03.17.721136 +0530,
images/4n.tiff,images/4n.tiff,,,,,,,,,,,0,4,4,1,,,,,,,,,316.65635820000006,,,,,,,,,,,,,,,,,,,,,,,,,,,,,,,,,,,,,,,,,,,,,,,,,,,,,,,,,,,316.64287900000005,316.65635820000006,317.14055320000006,317.14059430000003,317.1562369,317.34050010000004,317.3405403,317.3629928,317.3629928,317.3629928,317.8728015,317.8728015,326.0388962,['m'],[8.673287099999925],[None],317.1562369,317.3629928,,,,,,,,,,,,,,,,,,,,,,,,,,,,,,,,,,,,,,,,,,,,,,,,,,,,,,958162,001,2024-08-01_10h03.11.420,final,2024.1.5,None,2024-08-01 10h03.17.721136 +0530,
images/4n.tiff,images/4n.tiff,,,,,,,,,,,0,5,5,4,,,,,,,,,326.0534075,,,,,,,,,,,,,,,,,,,,,,,,,,,,,,,,,,,,,,,,,,,,,,,,,,,,,,,,,,,326.0403812,326.0534075,326.53751430000005,326.53755860000007,326.55322359999997,326.7374917,326.7375536,326.76855430000006,326.76855430000006,326.76855430000006,327.26973330000004,327.26973330000004,327.9378588,['z'],[1.155686699999933],[None],326.55322359999997,326.76855430000006,,,,,,,,,,,,,,,,,,,,,,,,,,,,,,,,,,,,,,,,,,,,,,,,,,,,,,958162,001,2024-08-01_10h03.11.420,final,2024.1.5,None,2024-08-01 10h03.17.721136 +0530,
images/4n.tiff,images/4n.tiff,,,,,,,,,,,1,0,6,4,,,,,,,,,327.9527615,,,,,,,,,,,,,,,,,,,,,,,,,,,,,,,,,,,,,,,,,,,,,,,,,,,,,,,,,,,327.9393819,327.9527615,328.4369284,328.43697990000004,328.4525746,328.63678899999996,328.6368276,328.6586647,328.6586647,328.6586647,329.16911540000007,329.16911540000007,329.48750350000006,['z'],[0.8255181000000675],[None],328.4525746,328.6586647,,,,,,,,,,,,,,,,,,,,,,,,,,,,,,,,,,,,,,,,,,,,,,,,,,,,,,958162,001,2024-08-01_10h03.11.420,final,2024.1.5,None,2024-08-01 10h03.17.721136 +0530,
images/4n.tiff,images/18n.tiff,,,,,,,,,,,1,1,7,0,,,,,,,,,329.5022601,,,,,,,,,,,,,,,,,,,,,,,,,,,,,,,,,,,,,,,,,,,,,,,,,,,,,,,,,,,329.48902960000004,329.5022601,329.98640670000003,329.9864614,330.0020877,330.1863987,330.18643920000005,330.2071534,330.2071534,330.2071534,330.7186202,330.7186202,331.2202147,['m'],[0.997528500000044],[None],330.0020877,330.2071534,,,,,,,,,,,,,,,,,,,,,,,,,,,,,,,,,,,,,,,,,,,,,,,,,,,,,,958162,001,2024-08-01_10h03.11.420,final,2024.1.5,None,2024-08-01 10h03.17.721136 +0530,
images/4n.tiff,images/4n.tiff,,,,,,,,,,,1,2,8,1,,,,,,,,,331.23508710000004,,,,,,,,,,,,,,,,,,,,,,,,,,,,,,,,,,,,,,,,,,,,,,,,,,,,,,,,,,,331.2217125,331.23508710000004,331.71914770000006,331.7191938,331.7349297,331.9195229,331.9195801,331.94084950000007,331.94084950000007,331.94084950000007,332.4512746,332.4512746,332.7695045,['z'],[0.815540800000008],[None],331.7349297,331.94084950000007,,,,,,,,,,,,,,,,,,,,,,,,,,,,,,,,,,,,,,,,,,,,,,,,,,,,,,958162,001,2024-08-01_10h03.11.420,final,2024.1.5,None,2024-08-01 10h03.17.721136 +0530,
images/18n.tiff,images/4n.tiff,,,,,,,,,,,1,3,9,2,,,,,,,,,332.78452410000006,,,,,,,,,,,,,,,,,,,,,,,,,,,,,,,,,,,,,,,,,,,,,,,,,,,,,,,,,,,332.77115910000003,332.78452410000006,333.26869430000005,333.2687448,333.2844323,333.46857400000005,333.4686238,333.48964259999997,333.48964259999997,333.48964259999997,334.0007757,334.0007757,334.66946020000006,['m'],[1.163124899999957],[None],333.2844323,333.48964259999997,,,,,,,,,,,,,,,,,,,,,,,,,,,,,,,,,,,,,,,,,,,,,,,,,,,,,,958162,001,2024-08-01_10h03.11.420,final,2024.1.5,None,2024-08-01 10h03.17.721136 +0530,
images/18n.tiff,images/18n.tiff,,,,,,,,,,,1,4,10,5,,,,,,,,,334.68385889999996,,,,,,,,,,,,,,,,,,,,,,,,,,,,,,,,,,,,,,,,,,,,,,,,,,,,,,,,,,,334.6711231,334.68385889999996,335.1680641,335.1681136,335.18379,335.3679041,335.36794390000006,335.3878927,335.3878927,335.3878927,335.90017489999997,335.90017489999997,336.5517266,['z'],[1.1520966000000499],[None],335.18379,335.3878927,,,,,,,,,,,,,,,,,,,,,,,,,,,,,,,,,,,,,,,,,,,,,,,,,,,,,,958162,001,2024-08-01_10h03.11.420,final,2024.1.5,None,2024-08-01 10h03.17.721136 +0530,
images/18n.tiff,images/18n.tiff,,,,,,,,,,,1,5,11,3,,,,,,,,,336.56663629999997,,,,,,,,,,,,,,,,,,,,,,,,,,,,,,,,,,,,,,,,,,,,,,,,,,,,,,,,,,,336.55348580000003,336.56663629999997,337.0507052,337.0507525,337.06655889999996,337.25069490000004,337.25074480000006,337.27209480000005,337.27209480000005,337.27209480000005,337.78285339999996,337.78285339999996,338.3011337,['z'],[1.0118724999999813],[None],337.06655889999996,337.27209480000005,,,,,,,,,,,,,,,,,,,,,,,,,,,,,,,,,,,,,,,,,,,,,,,,,,,,,,958162,001,2024-08-01_10h03.11.420,final,2024.1.5,None,2024-08-01 10h03.17.721136 +0530,
images/4n.tiff,images/4n.tiff,,,,,,,,,,,2,0,12,1,,,,,,,,,338.316129,,,,,,,,,,,,,,,,,,,,,,,,,,,,,,,,,,,,,,,,,,,,,,,,,,,,,,,,,,,338.30261720000004,338.316129,338.7993048,338.79931930000004,338.81582480000003,339.0000677,339.0001136,339.0217734,339.0217734,339.0217734,339.53236870000006,339.53236870000006,340.3003796,['z'],[1.2630401999999776],[None],338.81582480000003,339.0217734,,,,,,,,,,,,,,,,,,,,,,,,,,,,,,,,,,,,,,,,,,,,,,,,,,,,,,958162,001,2024-08-01_10h03.11.420,final,2024.1.5,None,2024-08-01 10h03.17.721136 +0530,
images/4n.tiff,images/4n.tiff,,,,,,,,,,,2,1,13,4,,,,,,,,,340.31546180000004,,,,,,,,,,,,,,,,,,,,,,,,,,,,,,,,,,,,,,,,,,,,,,,,,,,,,,,,,,,340.30188130000005,340.31546180000004,340.7991355,340.7991708,340.8153306,340.9994119,340.9994599,341.02137480000005,341.02137480000005,341.02137480000005,341.53171850000007,341.53171850000007,342.08374269999996,['z'],[1.0553641999999854],[None],340.8153306,341.02137480000005,,,,,,,,,,,,,,,,,,,,,,,,,,,,,,,,,,,,,,,,,,,,,,,,,,,,,,958162,001,2024-08-01_10h03.11.420,final,2024.1.5,None,2024-08-01 10h03.17.721136 +0530,
images/18n.tiff,images/18n.tiff,,,,,,,,,,,2,2,14,3,,,,,,,,,342.09813249999996,,,,,,,,,,,,,,,,,,,,,,,,,,,,,,,,,,,,,,,,,,,,,,,,,,,,,,,,,,,342.08535910000006,342.09813249999996,342.58226210000004,342.5823042,342.59790230000004,342.78216679999997,342.7822077,342.80279220000006,342.80279220000006,342.80279220000006,343.31445479999996,343.31445479999996,343.86641520000006,['z'],[1.04972029999999],[None],342.59790230000004,342.80279220000006,,,,,,,,,,,,,,,,,,,,,,,,,,,,,,,,,,,,,,,,,,,,,,,,,,,,,,958162,001,2024-08-01_10h03.11.420,final,2024.1.5,None,2024-08-01 10h03.17.721136 +0530,
images/18n.tiff,images/4n.tiff,,,,,,,,,,,2,3,15,2,,,,,,,,,343.8808522,,,,,,,,,,,,,,,,,,,,,,,,,,,,,,,,,,,,,,,,,,,,,,,,,,,,,,,,,,,343.86785820000006,343.8808522,344.365015,344.36505760000006,344.3807066,344.5650818,344.5651268,344.58665690000004,344.58665690000004,344.58665690000004,345.09710250000006,345.09710250000006,345.71543330000003,['m'],[1.121712900000034],[None],344.3807066,344.58665690000004,,,,,,,,,,,,,,,,,,,,,,,,,,,,,,,,,,,,,,,,,,,,,,,,,,,,,,958162,001,2024-08-01_10h03.11.420,final,2024.1.5,None,2024-08-01 10h03.17.721136 +0530,
images/18n.tiff,images/18n.tiff,,,,,,,,,,,2,4,16,5,,,,,,,,,345.73024490000006,,,,,,,,,,,,,,,,,,,,,,,,,,,,,,,,,,,,,,,,,,,,,,,,,,,,,,,,,,,345.7170014,345.73024490000006,346.214456,346.214504,346.2301611,346.4145169,346.4145673,346.4363963,346.4363963,346.4363963,346.94649569999996,346.94649569999996,347.81425240000004,['z'],[1.375707200000079],[None],346.2301611,346.4363963,,,,,,,,,,,,,,,,,,,,,,,,,,,,,,,,,,,,,,,,,,,,,,,,,,,,,,958162,001,2024-08-01_10h03.11.420,final,2024.1.5,None,2024-08-01 10h03.17.721136 +0530,
images/4n.tiff,images/18n.tiff,,,,,,,,,,,2,5,17,0,,,,,,,,,347.829635,,,,,,,,,,,,,,,,,,,,,,,,,,,,,,,,,,,,,,,,,,,,,,,,,,,,,,,,,,,347.81531160000003,347.829635,348.3136679,348.31371989999997,348.32944000000003,348.51375850000005,348.51381269999996,348.5343112,348.5343112,348.5343112,349.0458892,349.0458892,349.9807901,['m'],[1.437952600000017],[None],348.32944000000003,348.5343112,,,,,,,,,,,,,,,,,,,,,,,,,,,,,,,,,,,,,,,,,,,,,,,,,,,,,,958162,001,2024-08-01_10h03.11.420,final,2024.1.5,None,2024-08-01 10h03.17.721136 +0530,
images/18n.tiff,images/18n.tiff,,,,,,,,,,,3,0,18,5,,,,,,,,,349.99544640000005,,,,,,,,,,,,,,,,,,,,,,,,,,,,,,,,,,,,,,,,,,,,,,,,,,,,,,,,,,,349.98239000000007,349.99544640000005,350.4797169,350.4797633,350.4953578,350.67967160000006,350.67972260000005,350.7009473,350.7009473,350.7009473,351.2118866,351.2118866,351.91349970000005,['z'],[1.1999111000000084],[None],350.4953578,350.7009473,,,,,,,,,,,,,,,,,,,,,,,,,,,,,,,,,,,,,,,,,,,,,,,,,,,,,,958162,001,2024-08-01_10h03.11.420,final,2024.1.5,None,2024-08-01 10h03.17.721136 +0530,
images/18n.tiff,images/18n.tiff,,,,,,,,,,,3,1,19,3,,,,,,,,,351.9282,,,,,,,,,,,,,,,,,,,,,,,,,,,,,,,,,,,,,,,,,,,,,,,,,,,,,,,,,,,351.9152161,351.9282,352.4126846,352.41273970000003,352.42814130000005,352.6119669,352.61199360000006,352.6312933,352.6312933,352.6312933,353.1445206,353.1445206,354.0795156,['z'],[1.4377434000000449],[None],352.42814130000005,352.6312933,,,,,,,,,,,,,,,,,,,,,,,,,,,,,,,,,,,,,,,,,,,,,,,,,,,,,,958162,001,2024-08-01_10h03.11.420,final,2024.1.5,None,2024-08-01 10h03.17.721136 +0530,
images/4n.tiff,images/18n.tiff,,,,,,,,,,,3,2,20,0,,,,,,,,,354.0940929,,,,,,,,,,,,,,,,,,,,,,,,,,,,,,,,,,,,,,,,,,,,,,,,,,,,,,,,,,,354.08120779999996,354.0940929,354.57836190000006,354.5784107,354.59401410000004,354.7783354,354.77838550000007,354.8003323,354.8003323,354.8003323,355.31054109999997,355.31054109999997,356.04526660000005,['m'],[1.2278672999999571],[None],354.59401410000004,354.8003323,,,,,,,,,,,,,,,,,,,,,,,,,,,,,,,,,,,,,,,,,,,,,,,,,,,,,,958162,001,2024-08-01_10h03.11.420,final,2024.1.5,None,2024-08-01 10h03.17.721136 +0530,
images/18n.tiff,images/4n.tiff,,,,,,,,,,,3,3,21,2,,,,,,,,,356.0601956,,,,,,,,,,,,,,,,,,,,,,,,,,,,,,,,,,,,,,,,,,,,,,,,,,,,,,,,,,,356.0468775,356.0601956,356.5443349,356.54437509999997,356.5600966,356.7442097,356.74425579999996,356.76558130000006,356.76558130000006,356.76558130000006,357.2765671,357.2765671,358.0447807,['m'],[1.2705429000000095],[None],356.5600966,356.76558130000006,,,,,,,,,,,,,,,,,,,,,,,,,,,,,,,,,,,,,,,,,,,,,,,,,,,,,,958162,001,2024-08-01_10h03.11.420,final,2024.1.5,None,2024-08-01 10h03.17.721136 +0530,
images/4n.tiff,images/4n.tiff,,,,,,,,,,,3,4,22,1,,,,,,,,,358.0596152,,,,,,,,,,,,,,,,,,,,,,,,,,,,,,,,,,,,,,,,,,,,,,,,,,,,,,,,,,,358.04627569999997,358.0596152,358.5436513,358.54369320000006,358.55940590000006,358.74357590000005,358.74362160000004,358.76454500000006,358.76454500000006,358.76454500000006,359.27591020000006,359.27591020000006,360.02753250000006,['z'],[1.2558592999999973],[None],358.55940590000006,358.76454500000006,,,,,,,,,,,,,,,,,,,,,,,,,,,,,,,,,,,,,,,,,,,,,,,,,,,,,,958162,001,2024-08-01_10h03.11.420,final,2024.1.5,None,2024-08-01 10h03.17.721136 +0530,
images/4n.tiff,images/4n.tiff,,,,,,,,,,,3,5,23,4,,,,,,,,,360.0421899,,,,,,,,,,,,,,,,,,,,,,,,,,,,,,,,,,,,,,,,,,,,,,,,,,,,,,,,,,,360.02910879999996,360.0421899,360.5263332,360.52637210000006,360.54204,360.7263195,360.7263619,360.7469206,360.7469206,360.7469206,361.2585496,361.2585496,362.9602424,['z'],[2.2093224999999848],[None],360.54204,360.7469206,,,,,,,,,,,,,,,,,,,,,,,,,,,,,,,,,,,,,,,,,,,,,,,,,,,,,,958162,001,2024-08-01_10h03.11.420,final,2024.1.5,None,2024-08-01 10h03.17.721136 +0530,
images/18n.tiff,images/18n.tiff,,,,,,,,,,,4,0,24,5,,,,,,,,,362.9746641,,,,,,,,,,,,,,,,,,,,,,,,,,,,,,,,,,,,,,,,,,,,,,,,,,,,,,,,,,,362.9618539,362.9746641,363.45854590000005,363.458593,363.47424970000003,363.65878349999997,363.65883249999996,363.6809186,363.6809186,363.6809186,364.19083770000003,364.19083770000003,364.74216570000004,['z'],[1.0438919000000624],[None],363.47424970000003,363.6809186,,,,,,,,,,,,,,,,,,,,,,,,,,,,,,,,,,,,,,,,,,,,,,,,,,,,,,958162,001,2024-08-01_10h03.11.420,final,2024.1.5,None,2024-08-01 10h03.17.721136 +0530,
images/18n.tiff,images/18n.tiff,,,,,,,,,,,4,1,25,3,,,,,,,,,364.7573951,,,,,,,,,,,,,,,,,,,,,,,,,,,,,,,,,,,,,,,,,,,,,,,,,,,,,,,,,,,364.74371479999996,364.7573951,365.2415563,365.241605,365.2572958,365.44133430000005,365.4413795,365.463906,365.463906,365.463906,365.9737405,365.9737405,367.1750897,['z'],[1.7005766999999423],[None],365.2572958,365.463906,,,,,,,,,,,,,,,,,,,,,,,,,,,,,,,,,,,,,,,,,,,,,,,,,,,,,,958162,001,2024-08-01_10h03.11.420,final,2024.1.5,None,2024-08-01 10h03.17.721136 +0530,
images/4n.tiff,images/4n.tiff,,,,,,,,,,,4,2,26,4,,,,,,,,,367.1899103,,,,,,,,,,,,,,,,,,,,,,,,,,,,,,,,,,,,,,,,,,,,,,,,,,,,,,,,,,,367.1768107,367.1899103,367.67410910000007,367.67414980000007,367.68969480000004,367.8740118,367.87405700000005,367.89527960000004,367.89527960000004,367.89527960000004,368.4062505,368.4062505,368.99138780000004,['z'],[1.0853794999999309],[None],367.68969480000004,367.89527960000004,,,,,,,,,,,,,,,,,,,,,,,,,,,,,,,,,,,,,,,,,,,,,,,,,,,,,,958162,001,2024-08-01_10h03.11.420,final,2024.1.5,None,2024-08-01 10h03.17.721136 +0530,
images/4n.tiff,images/18n.tiff,,,,,,,,,,,4,3,27,0,,,,,,,,,369.00604500000003,,,,,,,,,,,,,,,,,,,,,,,,,,,,,,,,,,,,,,,,,,,,,,,,,,,,,,,,,,,368.99301610000003,369.00604500000003,369.4900525,369.4900982,369.50588210000006,369.68988140000005,369.68992740000004,369.7117983,369.7117983,369.7117983,370.22229580000004,370.22229580000004,370.7902483,['m'],[1.076613199999997],[None],369.50588210000006,369.7117983,,,,,,,,,,,,,,,,,,,,,,,,,,,,,,,,,,,,,,,,,,,,,,,,,,,,,,958162,001,2024-08-01_10h03.11.420,final,2024.1.5,None,2024-08-01 10h03.17.721136 +0530,
images/18n.tiff,images/4n.tiff,,,,,,,,,,,4,4,28,2,,,,,,,,,370.8053994,,,,,,,,,,,,,,,,,,,,,,,,,,,,,,,,,,,,,,,,,,,,,,,,,,,,,,,,,,,370.79124329999996,370.8053994,371.28943499999997,371.28947850000003,371.3052783,371.489171,371.48921909999996,371.51045189999996,371.51045189999996,371.51045189999996,372.02174529999996,372.02174529999996,372.9069959,['m'],[1.3897441999999955],[None],371.3052783,371.51045189999996,,,,,,,,,,,,,,,,,,,,,,,,,,,,,,,,,,,,,,,,,,,,,,,,,,,,,,958162,001,2024-08-01_10h03.11.420,final,2024.1.5,None,2024-08-01 10h03.17.721136 +0530,
images/4n.tiff,images/4n.tiff,,,,,,,,,,,4,5,29,1,,,,,,,,,372.9212654,,,,,,,,,,,,,,,,,,,,,,,,,,,,,,,,,,,,,,,,,,,,,,,,,,,,,,,,,,,372.90848880000004,372.9212654,373.40541650000006,373.4054551,373.42123610000004,373.6054817,373.60553540000006,373.6268428,373.6268428,373.6268428,374.1375794,374.1375794,374.6227376,['z'],[0.9859232999999676],[None],373.42123610000004,373.6268428,,,,,,,,,,,,,,,,,,,,,,,,,,,,,,,,,,,,,,,,,,,,,,,,,,,,,,958162,001,2024-08-01_10h03.11.420,final,2024.1.5,None,2024-08-01 10h03.17.721136 +0530,
images/4n.tiff,images/4n.tiff,,,,,,,,,,,5,0,30,1,,,,,,,,,374.6374977,,,,,,,,,,,,,,,,,,,,,,,,,,,,,,,,,,,,,,,,,,,,,,,,,,,,,,,,,,,374.6242018,374.6374977,375.1215848,375.12162730000006,375.1372779,375.3215475,375.3215925,375.3430632,375.3430632,375.3430632,375.8537607,375.8537607,376.47184980000003,['z'],[1.1188436999999567],[None],375.1372779,375.3430632,,,,,,,,,,,,,,,,,,,,,,,,,,,,,,,,,,,,,,,,,,,,,,,,,,,,,,958162,001,2024-08-01_10h03.11.420,final,2024.1.5,None,2024-08-01 10h03.17.721136 +0530,
images/4n.tiff,images/4n.tiff,,,,,,,,,,,5,1,31,4,,,,,,,,,376.4868224,,,,,,,,,,,,,,,,,,,,,,,,,,,,,,,,,,,,,,,,,,,,,,,,,,,,,,,,,,,376.47326549999997,376.4868224,376.971153,376.97120350000006,376.98671010000004,377.1710096,377.1710569,377.19253970000005,377.19253970000005,377.19253970000005,377.70322000000004,377.70322000000004,378.47168730000004,['z'],[1.26811019999991],[None],376.98671010000004,377.19253970000005,,,,,,,,,,,,,,,,,,,,,,,,,,,,,,,,,,,,,,,,,,,,,,,,,,,,,,958162,001,2024-08-01_10h03.11.420,final,2024.1.5,None,2024-08-01 10h03.17.721136 +0530,
images/4n.tiff,images/18n.tiff,,,,,,,,,,,5,2,32,0,,,,,,,,,378.48611380000006,,,,,,,,,,,,,,,,,,,,,,,,,,,,,,,,,,,,,,,,,,,,,,,,,,,,,,,,,,,378.47333570000006,378.48611380000006,378.9704883,378.97055070000005,378.98607610000005,379.17039170000004,379.1704405,379.19138960000004,379.19138960000004,379.19138960000004,379.7025537,379.7025537,380.23763030000003,['m'],[1.029366800000048],[None],378.98607610000005,379.19138960000004,,,,,,,,,,,,,,,,,,,,,,,,,,,,,,,,,,,,,,,,,,,,,,,,,,,,,,958162,001,2024-08-01_10h03.11.420,final,2024.1.5,None,2024-08-01 10h03.17.721136 +0530,
images/18n.tiff,images/18n.tiff,,,,,,,,,,,5,3,33,5,,,,,,,,,380.25229140000005,,,,,,,,,,,,,,,,,,,,,,,,,,,,,,,,,,,,,,,,,,,,,,,,,,,,,,,,,,,380.23924400000004,380.25229140000005,380.7363608,380.7364062,380.7522121,380.93590850000004,380.93593649999997,380.95679179999996,380.95679179999996,380.95679179999996,381.468627,381.468627,382.03701330000007,['z'],[1.071418699999981],[None],380.7522121,380.95679179999996,,,,,,,,,,,,,,,,,,,,,,,,,,,,,,,,,,,,,,,,,,,,,,,,,,,,,,958162,001,2024-08-01_10h03.11.420,final,2024.1.5,None,2024-08-01 10h03.17.721136 +0530,
images/18n.tiff,images/18n.tiff,,,,,,,,,,,5,4,34,3,,,,,,,,,382.0517571,,,,,,,,,,,,,,,,,,,,,,,,,,,,,,,,,,,,,,,,,,,,,,,,,,,,,,,,,,,382.03852880000005,382.0517571,382.53580230000006,382.5358441,382.55159610000004,382.73580970000006,382.7358585,382.75706629999996,382.75706629999996,382.75706629999996,383.26805540000004,383.26805540000004,383.98636289999996,['z'],[1.2154901999999765],[None],382.55159610000004,382.75706629999996,,,,,,,,,,,,,,,,,,,,,,,,,,,,,,,,,,,,,,,,,,,,,,,,,,,,,,958162,001,2024-08-01_10h03.11.420,final,2024.1.5,None,2024-08-01 10h03.17.721136 +0530,
images/18n.tiff,images/4n.tiff,,,,,,,,,,,5,5,35,2,,,,,,,,,384.00103270000005,,,,,,,,,,,,,,,,,,,,,,,,,,,,,,,,,,,,,,,,,,,,,,,,,,,,,,,,,,,383.9880073,384.00103270000005,384.4852179,384.48526050000004,384.5009709,384.68514239999996,384.6851846,384.7055505,384.7055505,384.7055505,385.2174243,385.2174243,385.60222000000005,['m'],[0.8905544000000418],[None],384.5009709,384.7055505,,,,,,,,,,,,,,,,,,,,,,,,,,,,,,,,,,,,,,,,,,,,,,,,,,,,,,958162,001,2024-08-01_10h03.11.420,final,2024.1.5,None,2024-08-01 10h03.17.721136 +0530,
images/4n.tiff,images/4n.tiff,,,,,,,,,,,6,0,36,4,,,,,,,,,385.6172923,,,,,,,,,,,,,,,,,,,,,,,,,,,,,,,,,,,,,,,,,,,,,,,,,,,,,,,,,,,385.603731,385.6172923,386.101392,386.1014362,386.1170947,386.3014844,386.3015333,386.32431030000004,386.32431030000004,386.32431030000004,386.83348730000006,386.83348730000006,387.2854179,['z'],[0.9519649000000072],[None],386.1170947,386.32431030000004,,,,,,,,,,,,,,,,,,,,,,,,,,,,,,,,,,,,,,,,,,,,,,,,,,,,,,958162,001,2024-08-01_10h03.11.420,final,2024.1.5,None,2024-08-01 10h03.17.721136 +0530,
images/18n.tiff,images/4n.tiff,,,,,,,,,,,6,1,37,2,,,,,,,,,387.2999983,,,,,,,,,,,,,,,,,,,,,,,,,,,,,,,,,,,,,,,,,,,,,,,,,,,,,,,,,,,387.2870475,387.2999983,387.78410909999997,387.7841589,387.79985590000007,387.98410040000005,387.98415070000004,388.0051322,388.0051322,388.0051322,388.5163604,388.5163604,389.2681564,['m'],[1.2556531000000177],[None],387.79985590000007,388.0051322,,,,,,,,,,,,,,,,,,,,,,,,,,,,,,,,,,,,,,,,,,,,,,,,,,,,,,958162,001,2024-08-01_10h03.11.420,final,2024.1.5,None,2024-08-01 10h03.17.721136 +0530,
images/4n.tiff,images/18n.tiff,,,,,,,,,,,6,2,38,0,,,,,,,,,389.28267910000005,,,,,,,,,,,,,,,,,,,,,,,,,,,,,,,,,,,,,,,,,,,,,,,,,,,,,,,,,,,389.269842,389.28267910000005,389.76687840000005,389.7669259,389.7824751,389.96609229999996,389.9661058,389.98692969999996,389.98692969999996,389.98692969999996,390.4988682,390.4988682,391.2006968,['m'],[1.2018151999999418],[None],389.7824751,389.98692969999996,,,,,,,,,,,,,,,,,,,,,,,,,,,,,,,,,,,,,,,,,,,,,,,,,,,,,,958162,001,2024-08-01_10h03.11.420,final,2024.1.5,None,2024-08-01 10h03.17.721136 +0530,
images/18n.tiff,images/18n.tiff,,,,,,,,,,,6,3,39,5,,,,,,,,,391.21531899999997,,,,,,,,,,,,,,,,,,,,,,,,,,,,,,,,,,,,,,,,,,,,,,,,,,,,,,,,,,,391.2022721,391.21531899999997,391.6996066,391.69965400000007,391.7152798,391.8991964,391.89924030000003,391.9206062,391.9206062,391.9206062,392.43163020000003,392.43163020000003,392.96739410000004,['z'],[1.0440938000000415],[None],391.7152798,391.9206062,,,,,,,,,,,,,,,,,,,,,,,,,,,,,,,,,,,,,,,,,,,,,,,,,,,,,,958162,001,2024-08-01_10h03.11.420,final,2024.1.5,None,2024-08-01 10h03.17.721136 +0530,
images/4n.tiff,images/4n.tiff,,,,,,,,,,,6,4,40,1,,,,,,,,,392.98149240000004,,,,,,,,,,,,,,,,,,,,,,,,,,,,,,,,,,,,,,,,,,,,,,,,,,,,,,,,,,,392.96892410000004,392.98149240000004,393.46560330000005,393.46564470000004,393.4812884,393.66572720000005,393.6657793,393.6873092,393.6873092,393.6873092,394.19752009999996,394.19752009999996,395.29924740000007,['z'],[1.5967309000000114],[None],393.4812884,393.6873092,,,,,,,,,,,,,,,,,,,,,,,,,,,,,,,,,,,,,,,,,,,,,,,,,,,,,,958162,001,2024-08-01_10h03.11.420,final,2024.1.5,None,2024-08-01 10h03.17.721136 +0530,
images/18n.tiff,images/18n.tiff,,,,,,,,,,,6,5,41,3,,,,,,,,,395.3140857,,,,,,,,,,,,,,,,,,,,,,,,,,,,,,,,,,,,,,,,,,,,,,,,,,,,,,,,,,,395.3007945,395.3140857,395.7982463,395.79829190000004,395.81397929999997,395.9974243,395.9974398,396.01646150000005,396.01646150000005,396.01646150000005,396.5302955,396.5302955,396.89857620000004,['z'],[0.8684332999999924],[None],395.81397929999997,396.01646150000005,,,,,,,,,,,,,,,,,,,,,,,,,,,,,,,,,,,,,,,,,,,,,,,,,,,,,,958162,001,2024-08-01_10h03.11.420,final,2024.1.5,None,2024-08-01 10h03.17.721136 +0530,
images/4n.tiff,images/4n.tiff,,,,,,,,,,,7,0,42,1,,,,,,,,,396.9135795,,,,,,,,,,,,,,,,,,,,,,,,,,,,,,,,,,,,,,,,,,,,,,,,,,,,,,,,,,,396.89997220000004,396.9135795,397.3970321,397.39705280000004,397.4134052,397.59759379999997,397.59763990000005,397.62020309999997,397.62020309999997,397.62020309999997,398.12980120000003,398.12980120000003,398.4483939,['z'],[0.8246255999999903],[None],397.4134052,397.62020309999997,,,,,,,,,,,,,,,,,,,,,,,,,,,,,,,,,,,,,,,,,,,,,,,,,,,,,,958162,001,2024-08-01_10h03.11.420,final,2024.1.5,None,2024-08-01 10h03.17.721136 +0530,
images/18n.tiff,images/4n.tiff,,,,,,,,,,,7,1,43,2,,,,,,,,,398.46307370000005,,,,,,,,,,,,,,,,,,,,,,,,,,,,,,,,,,,,,,,,,,,,,,,,,,,,,,,,,,,398.4500294,398.46307370000005,398.9471659,398.94721269999997,398.9629282,399.14688889999996,399.1469454,399.16912540000004,399.16912540000004,399.16912540000004,399.67927119999996,399.67927119999996,400.28120010000004,['m'],[1.1069426000000249],[None],398.9629282,399.16912540000004,,,,,,,,,,,,,,,,,,,,,,,,,,,,,,,,,,,,,,,,,,,,,,,,,,,,,,958162,001,2024-08-01_10h03.11.420,final,2024.1.5,None,2024-08-01 10h03.17.721136 +0530,
images/4n.tiff,images/4n.tiff,,,,,,,,,,,7,2,44,4,,,,,,,,,400.295824,,,,,,,,,,,,,,,,,,,,,,,,,,,,,,,,,,,,,,,,,,,,,,,,,,,,,,,,,,,400.2827371,400.295824,400.77988210000007,400.7799213,400.79570730000006,400.9799887,400.9800535,401.0022115,401.0022115,401.0022115,401.5120834,401.5120834,401.91382030000005,['z'],[0.8982694999999694],[None],400.79570730000006,401.0022115,,,,,,,,,,,,,,,,,,,,,,,,,,,,,,,,,,,,,,,,,,,,,,,,,,,,,,958162,001,2024-08-01_10h03.11.420,final,2024.1.5,None,2024-08-01 10h03.17.721136 +0530,
images/18n.tiff,images/18n.tiff,,,,,,,,,,,7,3,45,5,,,,,,,,,401.9285273,,,,,,,,,,,,,,,,,,,,,,,,,,,,,,,,,,,,,,,,,,,,,,,,,,,,,,,,,,,401.91530819999997,401.9285273,402.4117855,402.41180090000006,402.427984,402.6126664,402.6127134,402.6354796,402.6354796,402.6354796,403.14488050000006,403.14488050000006,404.22990450000003,['z'],[1.5845133999999916],[None],402.427984,402.6354796,,,,,,,,,,,,,,,,,,,,,,,,,,,,,,,,,,,,,,,,,,,,,,,,,,,,,,958162,001,2024-08-01_10h03.11.420,final,2024.1.5,None,2024-08-01 10h03.17.721136 +0530,
images/4n.tiff,images/18n.tiff,,,,,,,,,,,7,4,46,0,,,,,,,,,404.24450659999997,,,,,,,,,,,,,,,,,,,,,,,,,,,,,,,,,,,,,,,,,,,,,,,,,,,,,,,,,,,404.2315378,404.24450659999997,404.72855450000003,404.72861589999997,404.7443745,404.92735110000007,404.92735980000003,404.9449361,404.9449361,404.9449361,405.44420900000006,405.44420900000006,406.1961104,['m'],[1.2439198000000715],[None],404.7443745,404.9449361,,,,,,,,,,,,,,,,,,,,,,,,,,,,,,,,,,,,,,,,,,,,,,,,,,,,,,958162,001,2024-08-01_10h03.11.420,final,2024.1.5,None,2024-08-01 10h03.17.721136 +0530,
images/18n.tiff,images/18n.tiff,,,,,,,,,,,7,5,47,3,,,,,,,,,406.2104487,,,,,,,,,,,,,,,,,,,,,,,,,,,,,,,,,,,,,,,,,,,,,,,,,,,,,,,,,,,406.19763760000006,406.2104487,406.6937131,406.6937235,406.71009710000004,406.8946351,406.8946822,406.91589790000006,406.91589790000006,406.91589790000006,407.42646600000006,407.42646600000006,407.9603921,['z'],[1.0327323999999862],[None],406.71009710000004,406.91589790000006,,,,,,,,,,,,,,,,,,,,,,,,,,,,,,,,,,,,,,,,,,,,,,,,,,,,,,958162,001,2024-08-01_10h03.11.420,final,2024.1.5,None,2024-08-01 10h03.17.721136 +0530,
images/18n.tiff,images/18n.tiff,,,,,,,,,,,8,0,48,5,,,,,,,,,407.97631800000005,,,,,,,,,,,,,,,,,,,,,,,,,,,,,,,,,,,,,,,,,,,,,,,,,,,,,,,,,,,407.96069140000003,407.97631800000005,408.4599751,408.45998420000006,408.4760967,408.6599111,408.65992320000004,408.67714730000006,408.67714730000006,408.67714730000006,409.17585790000004,409.17585790000004,409.6598468,['z'],[0.9671549999999343],[None],408.4760967,408.67714730000006,,,,,,,,,,,,,,,,,,,,,,,,,,,,,,,,,,,,,,,,,,,,,,,,,,,,,,958162,001,2024-08-01_10h03.11.420,final,2024.1.5,None,2024-08-01 10h03.17.721136 +0530,
images/4n.tiff,images/18n.tiff,,,,,,,,,,,8,1,49,0,,,,,,,,,409.67575170000003,,,,,,,,,,,,,,,,,,,,,,,,,,,,,,,,,,,,,,,,,,,,,,,,,,,,,,,,,,,409.66015810000005,409.67575170000003,410.15941219999996,410.1594213,410.17557590000007,410.35932859999997,410.3593381,410.3764934,410.3764934,410.3764934,410.87531430000007,410.87531430000007,411.4757675,['m'],[1.0840964000000213],[None],410.17557590000007,410.3764934,,,,,,,,,,,,,,,,,,,,,,,,,,,,,,,,,,,,,,,,,,,,,,,,,,,,,,958162,001,2024-08-01_10h03.11.420,final,2024.1.5,None,2024-08-01 10h03.17.721136 +0530,
images/4n.tiff,images/4n.tiff,,,,,,,,,,,8,2,50,4,,,,,,,,,411.4919517,,,,,,,,,,,,,,,,,,,,,,,,,,,,,,,,,,,,,,,,,,,,,,,,,,,,,,,,,,,411.47625050000005,411.4919517,411.97519040000003,411.9752051,411.99171240000004,412.17587540000005,412.17590609999996,412.2037767,412.2037767,412.2037767,412.708412,412.708412,413.14236439999996,['z'],[0.9289363999999978],[None],411.99171240000004,412.2037767,,,,,,,,,,,,,,,,,,,,,,,,,,,,,,,,,,,,,,,,,,,,,,,,,,,,,,958162,001,2024-08-01_10h03.11.420,final,2024.1.5,None,2024-08-01 10h03.17.721136 +0530,
images/4n.tiff,images/4n.tiff,,,,,,,,,,,8,3,51,1,,,,,,,,,413.1580452,,,,,,,,,,,,,,,,,,,,,,,,,,,,,,,,,,,,,,,,,,,,,,,,,,,,,,,,,,,413.1430301,413.1580452,413.6414245,413.6414362,413.65779760000004,413.8423168,413.8423627,413.86367179999996,413.86367179999996,413.86367179999996,414.37449240000007,414.37449240000007,414.77629410000003,['z'],[0.9006769000000077],[None],413.65779760000004,413.86367179999996,,,,,,,,,,,,,,,,,,,,,,,,,,,,,,,,,,,,,,,,,,,,,,,,,,,,,,958162,001,2024-08-01_10h03.11.420,final,2024.1.5,None,2024-08-01 10h03.17.721136 +0530,
images/18n.tiff,images/18n.tiff,,,,,,,,,,,8,4,52,3,,,,,,,,,414.7910512,,,,,,,,,,,,,,,,,,,,,,,,,,,,,,,,,,,,,,,,,,,,,,,,,,,,,,,,,,,414.77787040000004,414.7910512,415.2751686,415.27521240000004,415.29087699999997,415.4749648,415.47501260000007,415.50318010000007,415.50318010000007,415.50318010000007,416.00739000000004,416.00739000000004,417.62538839999996,['z'],[2.1091705000000047],[None],415.29087699999997,415.50318010000007,,,,,,,,,,,,,,,,,,,,,,,,,,,,,,,,,,,,,,,,,,,,,,,,,,,,,,958162,001,2024-08-01_10h03.11.420,final,2024.1.5,None,2024-08-01 10h03.17.721136 +0530,
images/18n.tiff,images/4n.tiff,,,,,,,,,,,8,5,53,2,,,,,,,,,417.64007670000007,,,,,,,,,,,,,,,,,,,,,,,,,,,,,,,,,,,,,,,,,,,,,,,,,,,,,,,,,,,417.62702770000004,417.64007670000007,418.1241511,418.1241952,418.13998540000006,418.3241572,418.3242019,418.34507160000004,418.34507160000004,418.34507160000004,418.85635199999996,418.85635199999996,419.30822800000004,['m'],[0.9476293999999825],[None],418.13998540000006,418.34507160000004,,,,,,,,,,,,,,,,,,,,,,,,,,,,,,,,,,,,,,,,,,,,,,,,,,,,,,958162,001,2024-08-01_10h03.11.420,final,2024.1.5,None,2024-08-01 10h03.17.721136 +0530,
images/4n.tiff,images/4n.tiff,,,,,,,,,,,9,0,54,1,,,,,,,,,419.32285600000006,,,,,,,,,,,,,,,,,,,,,,,,,,,,,,,,,,,,,,,,,,,,,,,,,,,,,,,,,,,419.3097029,419.32285600000006,419.80707160000003,419.80711820000005,419.82269679999996,420.00692829999997,420.00696780000004,420.02760700000005,420.02760700000005,420.02760700000005,420.5391593,420.5391593,420.8573964,['z'],[0.8168272999999999],[None],419.82269679999996,420.02760700000005,,,,,,,,,,,,,,,,,,,,,,,,,,,,,,,,,,,,,,,,,,,,,,,,,,,,,,958162,001,2024-08-01_10h03.11.420,final,2024.1.5,None,2024-08-01 10h03.17.721136 +0530,
images/18n.tiff,images/4n.tiff,,,,,,,,,,,9,1,55,2,,,,,,,,,420.8722343,,,,,,,,,,,,,,,,,,,,,,,,,,,,,,,,,,,,,,,,,,,,,,,,,,,,,,,,,,,420.858848,420.8722343,421.35656250000005,421.35661210000006,421.37215380000004,421.55651819999997,421.55656730000004,421.5785093,421.5785093,421.5785093,422.08866919999997,422.08866919999997,422.45703440000005,['m'],[0.873982500000011],[None],421.37215380000004,421.5785093,,,,,,,,,,,,,,,,,,,,,,,,,,,,,,,,,,,,,,,,,,,,,,,,,,,,,,958162,001,2024-08-01_10h03.11.420,final,2024.1.5,None,2024-08-01 10h03.17.721136 +0530,
images/18n.tiff,images/18n.tiff,,,,,,,,,,,9,2,56,3,,,,,,,,,422.4717156,,,,,,,,,,,,,,,,,,,,,,,,,,,,,,,,,,,,,,,,,,,,,,,,,,,,,,,,,,,422.4586526,422.4717156,422.9560028,422.9560496,422.97165520000004,423.155956,423.15600290000003,423.17771080000006,423.17771080000006,423.17771080000006,423.68815839999996,423.68815839999996,423.9232626,['z'],[0.7307716999999911],[None],422.97165520000004,423.17771080000006,,,,,,,,,,,,,,,,,,,,,,,,,,,,,,,,,,,,,,,,,,,,,,,,,,,,,,958162,001,2024-08-01_10h03.11.420,final,2024.1.5,None,2024-08-01 10h03.17.721136 +0530,
images/4n.tiff,images/4n.tiff,,,,,,,,,,,9,3,57,4,,,,,,,,,423.93804470000003,,,,,,,,,,,,,,,,,,,,,,,,,,,,,,,,,,,,,,,,,,,,,,,,,,,,,,,,,,,423.9247366,423.93804470000003,424.4220948,424.4221388,424.43790559999997,424.6221649,424.6222092,424.6436981,424.6436981,424.6436981,425.15428679999997,425.15428679999997,425.4561792,['z'],[0.8007010000000037],[None],424.43790559999997,424.6436981,,,,,,,,,,,,,,,,,,,,,,,,,,,,,,,,,,,,,,,,,,,,,,,,,,,,,,958162,001,2024-08-01_10h03.11.420,final,2024.1.5,None,2024-08-01 10h03.17.721136 +0530,
images/4n.tiff,images/18n.tiff,,,,,,,,,,,9,4,58,0,,,,,,,,,425.4707119,,,,,,,,,,,,,,,,,,,,,,,,,,,,,,,,,,,,,,,,,,,,,,,,,,,,,,,,,,,425.45780080000003,425.4707119,425.9550148,425.9550609,425.97071520000003,426.1550809,426.15513000000004,426.1770072,426.1770072,426.1770072,426.6871819,426.6871819,427.02274360000007,['m'],[0.8434768999999278],[None],425.97071520000003,426.1770072,,,,,,,,,,,,,,,,,,,,,,,,,,,,,,,,,,,,,,,,,,,,,,,,,,,,,,958162,001,2024-08-01_10h03.11.420,final,2024.1.5,None,2024-08-01 10h03.17.721136 +0530,
images/18n.tiff,images/18n.tiff,,,,,,,,,,,9,5,59,5,,,,,,,,,427.0370205,,,,,,,,,,,,,,,,,,,,,,,,,,,,,,,,,,,,,,,,,,,,,,,,,,,,,,,,,,,427.02435240000005,427.0370205,427.52109850000005,427.521142,427.53684390000006,427.72103340000007,427.7210776,427.74229270000006,427.74229270000006,427.74229270000006,428.2533199,428.2533199,428.7202282,['z'],[0.9743167999999969],[None],427.53684390000006,427.74229270000006,,,,,,,,,,,,,,,,,,,,,,,,,,,,,,,,,,,,,,,,,,,,,,,,,,,,,,958162,001,2024-08-01_10h03.11.420,final,2024.1.5,None,2024-08-01 10h03.17.721136 +0530,
,,,,,,,,,,,,,,,,,,,,,,,,,,,,,,,,,,,,,,,,,,,,,,,,,,,,,,,,,,,,,,,,,,,,,,,,,,,,,,,,,,,,,,,,,,,,,,,,,,,,,428.7205486,428.73630140000006,428.73630140000006,432.6710841,space,3.931921700000089,None,,,,,,,,,,,,,,,,,,,,,,,,,,,,,,,,,,,,,,,,,,,,,,,958162,001,2024-08-01_10h03.11.420,final,2024.1.5,None,2024-08-01 10h03.17.721136 +0530,
images/5n.tiff,images/5n.tiff,,,,,,,,,,,,,,,0,0,0,2,,,,,432.6933605,,,,,,,,,,,,,,,,,,,,,,,,,,,,,,,,,,,,,,,,,,,,,,,,,,,,,,,,,,,,,,,,,,,,,,,,,,,,,,,,,,,,432.6908001,432.6933605,433.18500839999996,433.18503219999997,433.2017311,433.38517240000004,433.3852132,433.42467089999997,433.42467089999997,433.42467089999997,433.93477750000005,433.93477750000005,434.7696904,['z'],[1.3316220000000385],[None],,,,,,,,,,,,,,,,,,,,,,,,,,,,,,,958162,001,2024-08-01_10h03.11.420,final,2024.1.5,None,2024-08-01 10h03.17.721136 +0530,
images/18n.tiff,images/18n.tiff,,,,,,,,,,,,,,,0,1,1,4,,,,,434.7845444,,,,,,,,,,,,,,,,,,,,,,,,,,,,,,,,,,,,,,,,,,,,,,,,,,,,,,,,,,,,,,,,,,,,,,,,,,,,,,,,,,,,434.77167019999996,434.7845444,435.26849440000007,435.2685402,435.2843135,435.46832610000007,435.46838180000003,435.48955240000004,435.48955240000004,435.48955240000004,436.00068930000003,436.00068930000003,436.5692098,['z'],[1.067439400000012],[None],435.2843135,435.48955240000004,,,,,,,,,,,,,,,,,,,,,,,,,,,,,958162,001,2024-08-01_10h03.11.420,final,2024.1.5,None,2024-08-01 10h03.17.721136 +0530,
images/5n.tiff,images/10n.tiff,,,,,,,,,,,,,,,0,2,2,3,,,,,436.58393659999996,,,,,,,,,,,,,,,,,,,,,,,,,,,,,,,,,,,,,,,,,,,,,,,,,,,,,,,,,,,,,,,,,,,,,,,,,,,,,,,,,,,,436.57070000000004,436.58393659999996,437.0679223,437.067967,437.0836287,437.2678719,437.26792059999997,437.2934822,437.2934822,437.2934822,437.8001611,437.8001611,439.0183301,['m'],[1.7113028999999642],[None],437.0836287,437.2934822,,,,,,,,,,,,,,,,,,,,,,,,,,,,,958162,001,2024-08-01_10h03.11.420,final,2024.1.5,None,2024-08-01 10h03.17.721136 +0530,
images/10n.tiff,images/10n.tiff,,,,,,,,,,,,,,,0,3,3,6,,,,,439.0331047,,,,,,,,,,,,,,,,,,,,,,,,,,,,,,,,,,,,,,,,,,,,,,,,,,,,,,,,,,,,,,,,,,,,,,,,,,,,,,,,,,,,439.01978909999997,439.0331047,439.5171612,439.51721190000006,439.53294910000005,439.717161,439.7172115,439.7383389,439.7383389,439.7383389,440.2493788,440.2493788,440.8511136,['z'],[1.1056916999999657],[None],439.53294910000005,439.7383389,,,,,,,,,,,,,,,,,,,,,,,,,,,,,958162,001,2024-08-01_10h03.11.420,final,2024.1.5,None,2024-08-01 10h03.17.721136 +0530,
images/10n.tiff,images/10n.tiff,,,,,,,,,,,,,,,0,4,4,11,,,,,440.86577990000006,,,,,,,,,,,,,,,,,,,,,,,,,,,,,,,,,,,,,,,,,,,,,,,,,,,,,,,,,,,,,,,,,,,,,,,,,,,,,,,,,,,,440.8524965,440.86577990000006,441.34995269999996,441.34999650000003,441.36555060000006,441.54991179999996,441.54996769999997,441.57161249999996,441.57161249999996,441.57161249999996,442.08207550000003,442.08207550000003,446.5157648,['z'],[4.929009800000017],[None],441.36555060000006,441.57161249999996,,,,,,,,,,,,,,,,,,,,,,,,,,,,,958162,001,2024-08-01_10h03.11.420,final,2024.1.5,None,2024-08-01 10h03.17.721136 +0530,
images/5n.tiff,images/5n.tiff,,,,,,,,,,,,,,,0,5,5,10,,,,,446.5306661,,,,,,,,,,,,,,,,,,,,,,,,,,,,,,,,,,,,,,,,,,,,,,,,,,,,,,,,,,,,,,,,,,,,,,,,,,,,,,,,,,,,446.5171218,446.5306661,447.01468170000004,447.0147274,447.03052610000003,447.2147908,447.21484160000006,447.2461434,447.2461434,447.2461434,447.74691160000003,447.74691160000003,448.0987545,['z'],[0.8387523999999758],[None],447.03052610000003,447.2461434,,,,,,,,,,,,,,,,,,,,,,,,,,,,,958162,001,2024-08-01_10h03.11.420,final,2024.1.5,None,2024-08-01 10h03.17.721136 +0530,
images/4n.tiff,images/18n.tiff,,,,,,,,,,,,,,,0,6,6,1,,,,,448.11324989999997,,,,,,,,,,,,,,,,,,,,,,,,,,,,,,,,,,,,,,,,,,,,,,,,,,,,,,,,,,,,,,,,,,,,,,,,,,,,,,,,,,,,448.1003881,448.11324989999997,448.5977724,448.5978184,448.6132319,448.79748220000005,448.7975274,448.8190678,448.8190678,448.8190678,449.32973150000004,449.32973150000004,449.81540520000004,['m'],[0.9934938999999758],[None],448.6132319,448.8190678,,,,,,,,,,,,,,,,,,,,,,,,,,,,,958162,001,2024-08-01_10h03.11.420,final,2024.1.5,None,2024-08-01 10h03.17.721136 +0530,
images/4n.tiff,images/4n.tiff,,,,,,,,,,,,,,,0,7,7,8,,,,,449.8295946,,,,,,,,,,,,,,,,,,,,,,,,,,,,,,,,,,,,,,,,,,,,,,,,,,,,,,,,,,,,,,,,,,,,,,,,,,,,,,,,,,,,449.81680880000005,449.8295946,450.3135391,450.31358059999997,450.3294328,450.51355870000003,450.51360360000007,450.5348617,450.5348617,450.5348617,451.0458227,451.0458227,451.59821130000006,['z'],[1.0611650000000736],[None],450.3294328,450.5348617,,,,,,,,,,,,,,,,,,,,,,,,,,,,,958162,001,2024-08-01_10h03.11.420,final,2024.1.5,None,2024-08-01 10h03.17.721136 +0530,
images/18n.tiff,images/18n.tiff,,,,,,,,,,,,,,,0,8,8,9,,,,,451.61223209999997,,,,,,,,,,,,,,,,,,,,,,,,,,,,,,,,,,,,,,,,,,,,,,,,,,,,,,,,,,,,,,,,,,,,,,,,,,,,,,,,,,,,451.59957160000005,451.61223209999997,452.096484,452.09653499999996,452.112095,452.2964387,452.2964933,452.31796479999997,452.31796479999997,452.31796479999997,452.82830440000004,452.82830440000004,453.26229530000006,['z'],[0.9344301999999516],[None],452.112095,452.31796479999997,,,,,,,,,,,,,,,,,,,,,,,,,,,,,958162,001,2024-08-01_10h03.11.420,final,2024.1.5,None,2024-08-01 10h03.17.721136 +0530,
images/10n.tiff,images/5n.tiff,,,,,,,,,,,,,,,0,9,9,7,,,,,453.27822180000004,,,,,,,,,,,,,,,,,,,,,,,,,,,,,,,,,,,,,,,,,,,,,,,,,,,,,,,,,,,,,,,,,,,,,,,,,,,,,,,,,,,,453.2627604,453.27822180000004,453.7617565,453.76177550000006,453.7780393,453.9616457,453.9616617,453.98227620000006,453.98227620000006,453.98227620000006,454.4944642,454.4944642,455.094991,['m'],[1.1106757999999672],[None],453.7780393,453.98227620000006,,,,,,,,,,,,,,,,,,,,,,,,,,,,,958162,001,2024-08-01_10h03.11.420,final,2024.1.5,None,2024-08-01 10h03.17.721136 +0530,
images/4n.tiff,images/4n.tiff,,,,,,,,,,,,,,,0,10,10,0,,,,,455.1108195,,,,,,,,,,,,,,,,,,,,,,,,,,,,,,,,,,,,,,,,,,,,,,,,,,,,,,,,,,,,,,,,,,,,,,,,,,,,,,,,,,,,455.0954588,455.1108195,455.59457990000004,455.59459540000006,455.6106726,455.79453340000003,455.7945494,455.81548190000007,455.81548190000007,455.81548190000007,456.32720939999996,456.32720939999996,457.0443929,['z'],[1.2212666000000354],[None],455.6106726,455.81548190000007,,,,,,,,,,,,,,,,,,,,,,,,,,,,,958162,001,2024-08-01_10h03.11.420,final,2024.1.5,None,2024-08-01 10h03.17.721136 +0530,
images/18n.tiff,images/4n.tiff,,,,,,,,,,,,,,,0,11,11,5,,,,,457.06018780000005,,,,,,,,,,,,,,,,,,,,,,,,,,,,,,,,,,,,,,,,,,,,,,,,,,,,,,,,,,,,,,,,,,,,,,,,,,,,,,,,,,,,457.04489040000004,457.06018780000005,457.54371370000007,457.54373000000004,457.56004220000005,457.7437176,457.74373180000003,457.76083250000005,457.76083250000005,457.76083250000005,458.25992720000005,458.25992720000005,458.76018089999997,['m'],[0.9877837999999883],[None],457.56004220000005,457.76083250000005,,,,,,,,,,,,,,,,,,,,,,,,,,,,,958162,001,2024-08-01_10h03.11.420,final,2024.1.5,None,2024-08-01 10h03.17.721136 +0530,
images/5n.tiff,images/5n.tiff,,,,,,,,,,,,,,,1,0,12,10,,,,,458.77638210000003,,,,,,,,,,,,,,,,,,,,,,,,,,,,,,,,,,,,,,,,,,,,,,,,,,,,,,,,,,,,,,,,,,,,,,,,,,,,,,,,,,,,458.7606364,458.77638210000003,459.26066240000006,459.2607063,459.27650439999996,459.460669,459.4607146,459.48227230000003,459.48227230000003,459.48227230000003,459.99292240000005,459.99292240000005,460.378221,['z'],[0.8902991000001066],[None],459.27650439999996,459.48227230000003,,,,,,,,,,,,,,,,,,,,,,,,,,,,,958162,001,2024-08-01_10h03.11.420,final,2024.1.5,None,2024-08-01 10h03.17.721136 +0530,
images/5n.tiff,images/5n.tiff,,,,,,,,,,,,,,,1,1,13,2,,,,,460.39279830000004,,,,,,,,,,,,,,,,,,,,,,,,,,,,,,,,,,,,,,,,,,,,,,,,,,,,,,,,,,,,,,,,,,,,,,,,,,,,,,,,,,,,460.3796441,460.39279830000004,460.87692510000005,460.87697280000003,460.89263880000004,461.07687549999997,461.0769261,461.09814750000004,461.09814750000004,461.09814750000004,461.6089827,461.6089827,461.9113382,['z'],[0.8107727999999952],[None],460.89263880000004,461.09814750000004,,,,,,,,,,,,,,,,,,,,,,,,,,,,,958162,001,2024-08-01_10h03.11.420,final,2024.1.5,None,2024-08-01 10h03.17.721136 +0530,
images/4n.tiff,images/4n.tiff,,,,,,,,,,,,,,,1,2,14,8,,,,,461.9256399,,,,,,,,,,,,,,,,,,,,,,,,,,,,,,,,,,,,,,,,,,,,,,,,,,,,,,,,,,,,,,,,,,,,,,,,,,,,,,,,,,,,461.9128192,461.9256399,462.40898039999996,462.4089965,462.4254451,462.6093223,462.6093553,462.6284155,462.6284155,462.6284155,463.14173009999996,463.14173009999996,463.5600642,['z'],[0.9201407000000472],[None],462.4254451,462.6284155,,,,,,,,,,,,,,,,,,,,,,,,,,,,,958162,001,2024-08-01_10h03.11.420,final,2024.1.5,None,2024-08-01 10h03.17.721136 +0530,
images/10n.tiff,images/5n.tiff,,,,,,,,,,,,,,,1,3,15,7,,,,,463.57508409999997,,,,,,,,,,,,,,,,,,,,,,,,,,,,,,,,,,,,,,,,,,,,,,,,,,,,,,,,,,,,,,,,,,,,,,,,,,,,,,,,,,,,463.56143650000007,463.57508409999997,464.0591863,464.059237,464.0749324,464.2590369,464.25908580000004,464.28032079999997,464.28032079999997,464.28032079999997,464.79134890000006,464.79134890000006,465.31016990000006,['m'],[1.0277494999999135],[None],464.0749324,464.28032079999997,,,,,,,,,,,,,,,,,,,,,,,,,,,,,958162,001,2024-08-01_10h03.11.420,final,2024.1.5,None,2024-08-01 10h03.17.721136 +0530,
images/10n.tiff,images/10n.tiff,,,,,,,,,,,,,,,1,4,16,6,,,,,465.3244703,,,,,,,,,,,,,,,,,,,,,,,,,,,,,,,,,,,,,,,,,,,,,,,,,,,,,,,,,,,,,,,,,,,,,,,,,,,,,,,,,,,,465.3114758,465.3244703,465.8085442,465.80859290000006,465.824416,466.00845499999997,466.00850610000003,466.0303198,466.0303198,466.0303198,466.5407628,466.5407628,467.05897350000004,['z'],[1.0145899999999983],[None],465.824416,466.0303198,,,,,,,,,,,,,,,,,,,,,,,,,,,,,958162,001,2024-08-01_10h03.11.420,final,2024.1.5,None,2024-08-01 10h03.17.721136 +0530,
images/18n.tiff,images/18n.tiff,,,,,,,,,,,,,,,1,5,17,4,,,,,467.07392469999996,,,,,,,,,,,,,,,,,,,,,,,,,,,,,,,,,,,,,,,,,,,,,,,,,,,,,,,,,,,,,,,,,,,,,,,,,,,,,,,,,,,,467.06038470000004,467.07392469999996,467.5579651,467.5580154,467.57377349999996,467.7579136,467.75796610000003,467.77969490000004,467.77969490000004,467.77969490000004,468.2902015,468.2902015,469.0251529,['z'],[1.2327503000000206],[None],467.57377349999996,467.77969490000004,,,,,,,,,,,,,,,,,,,,,,,,,,,,,958162,001,2024-08-01_10h03.11.420,final,2024.1.5,None,2024-08-01 10h03.17.721136 +0530,
images/5n.tiff,images/10n.tiff,,,,,,,,,,,,,,,1,6,18,3,,,,,469.03995249999997,,,,,,,,,,,,,,,,,,,,,,,,,,,,,,,,,,,,,,,,,,,,,,,,,,,,,,,,,,,,,,,,,,,,,,,,,,,,,,,,,,,,469.0265702,469.03995249999997,469.5240524,469.52409689999996,469.5397545,469.724095,469.72415100000006,469.74499310000004,469.74499310000004,469.74499310000004,470.2561456,470.2561456,470.64128650000004,['m'],[0.8840804999999818],[None],469.5397545,469.74499310000004,,,,,,,,,,,,,,,,,,,,,,,,,,,,,958162,001,2024-08-01_10h03.11.420,final,2024.1.5,None,2024-08-01 10h03.17.721136 +0530,
images/18n.tiff,images/4n.tiff,,,,,,,,,,,,,,,1,7,19,5,,,,,470.6560165,,,,,,,,,,,,,,,,,,,,,,,,,,,,,,,,,,,,,,,,,,,,,,,,,,,,,,,,,,,,,,,,,,,,,,,,,,,,,,,,,,,,470.6426554,470.6560165,471.13949370000006,471.13951349999996,471.1558372,471.34021509999997,471.34026710000006,471.3618293,471.3618293,471.3618293,471.8723267,471.8723267,472.4908571,['m'],[1.1143678999999338],[None],471.1558372,471.3618293,,,,,,,,,,,,,,,,,,,,,,,,,,,,,958162,001,2024-08-01_10h03.11.420,final,2024.1.5,None,2024-08-01 10h03.17.721136 +0530,
images/18n.tiff,images/18n.tiff,,,,,,,,,,,,,,,1,8,20,9,,,,,472.5054068,,,,,,,,,,,,,,,,,,,,,,,,,,,,,,,,,,,,,,,,,,,,,,,,,,,,,,,,,,,,,,,,,,,,,,,,,,,,,,,,,,,,472.4923653,472.5054068,472.98961090000006,472.9896601,473.00526830000007,473.18962000000005,473.1896711,473.21064889999997,473.21064889999997,473.21064889999997,473.7217606,473.7217606,474.1234734,['z'],[0.906124200000022],[None],473.00526830000007,473.21064889999997,,,,,,,,,,,,,,,,,,,,,,,,,,,,,958162,001,2024-08-01_10h03.11.420,final,2024.1.5,None,2024-08-01 10h03.17.721136 +0530,
images/4n.tiff,images/18n.tiff,,,,,,,,,,,,,,,1,9,21,1,,,,,474.13811830000003,,,,,,,,,,,,,,,,,,,,,,,,,,,,,,,,,,,,,,,,,,,,,,,,,,,,,,,,,,,,,,,,,,,,,,,,,,,,,,,,,,,,474.12495789999997,474.13811830000003,474.6224511,474.6225066,474.6381167,474.8223251,474.8223771,474.8437575,474.8437575,474.8437575,475.35444680000006,475.35444680000006,476.18965,['m'],[1.3368299999999635],[None],474.6381167,474.8437575,,,,,,,,,,,,,,,,,,,,,,,,,,,,,958162,001,2024-08-01_10h03.11.420,final,2024.1.5,None,2024-08-01 10h03.17.721136 +0530,
images/10n.tiff,images/10n.tiff,,,,,,,,,,,,,,,1,10,22,11,,,,,476.20421990000006,,,,,,,,,,,,,,,,,,,,,,,,,,,,,,,,,,,,,,,,,,,,,,,,,,,,,,,,,,,,,,,,,,,,,,,,,,,,,,,,,,,,476.1911313,476.20421990000006,476.68839610000003,476.68844459999997,476.70403690000006,476.8883123,476.8883612,476.90915160000003,476.90915160000003,476.90915160000003,477.4205358,477.4205358,477.7723738,['z'],[0.855280300000004],[None],476.70403690000006,476.90915160000003,,,,,,,,,,,,,,,,,,,,,,,,,,,,,958162,001,2024-08-01_10h03.11.420,final,2024.1.5,None,2024-08-01 10h03.17.721136 +0530,
images/4n.tiff,images/4n.tiff,,,,,,,,,,,,,,,1,11,23,0,,,,,477.78705110000004,,,,,,,,,,,,,,,,,,,,,,,,,,,,,,,,,,,,,,,,,,,,,,,,,,,,,,,,,,,,,,,,,,,,,,,,,,,,,,,,,,,,477.77374520000006,477.78705110000004,478.2713236,478.27137440000007,478.2869499,478.47114160000007,478.4711901,478.4923091,478.4923091,478.4923091,479.00330650000006,479.00330650000006,479.38845440000006,['z'],[0.8880624000000807],[None],478.2869499,478.4923091,,,,,,,,,,,,,,,,,,,,,,,,,,,,,958162,001,2024-08-01_10h03.11.420,final,2024.1.5,None,2024-08-01 10h03.17.721136 +0530,
images/18n.tiff,images/18n.tiff,,,,,,,,,,,,,,,2,0,24,4,,,,,479.4031696,,,,,,,,,,,,,,,,,,,,,,,,,,,,,,,,,,,,,,,,,,,,,,,,,,,,,,,,,,,,,,,,,,,,,,,,,,,,,,,,,,,,479.38986790000007,479.4031696,479.88731320000005,479.8873606,479.9030091,480.0871871,480.0872327,480.10851310000004,480.10851310000004,480.10851310000004,480.6194903,480.6194903,480.97110420000007,['z'],[0.8560408999999254],[None],479.9030091,480.10851310000004,,,,,,,,,,,,,,,,,,,,,,,,,,,,,958162,001,2024-08-01_10h03.11.420,final,2024.1.5,None,2024-08-01 10h03.17.721136 +0530,
images/4n.tiff,images/18n.tiff,,,,,,,,,,,,,,,2,1,25,1,,,,,480.98593669999997,,,,,,,,,,,,,,,,,,,,,,,,,,,,,,,,,,,,,,,,,,,,,,,,,,,,,,,,,,,,,,,,,,,,,,,,,,,,,,,,,,,,480.97248329999996,480.98593669999997,481.4700787,481.4701246,481.4858248,481.67008730000003,481.67013000000003,481.6903236,481.6903236,481.6903236,482.20224250000007,482.20224250000007,482.75373700000006,['m'],[1.0505002999999533],[None],481.4858248,481.6903236,,,,,,,,,,,,,,,,,,,,,,,,,,,,,958162,001,2024-08-01_10h03.11.420,final,2024.1.5,None,2024-08-01 10h03.17.721136 +0530,
